subject	block	trial	texture	category	image	trialOnset	itiOnset	trialEnd	iti	EEGtrigger	responseKey	responseTime	accuracy
 105	1	1	13	bathroom	sun_aavhrsfjbserjtht.tif	930565.253637	930565.512224	930566.252547	7.508747e-01	3	none	NaN	NaN
 105	1	2	49	bathroom	sun_asfwthctfqerjvxr.tif	930567.022049	930567.280643	930568.020907	8.426483e-01	39	none	NaN	NaN
 105	1	3	25	bathroom	sun_agyqfjcfkdcydepw.tif	930568.790471	930569.049063	930569.789456	6.591011e-01	15	39	930572.265092	1
 105	1	4	38	bathroom	sun_anhioqovhscjqqwb.tif	930573.036340	930573.294929	930574.035249	7.842469e-01	28	none	NaN	NaN
 105	1	5	37	bathroom	sun_amzlamotzwfkwjco.tif	930574.804750	930575.063348	930575.803724	7.175025e-01	27	none	NaN	NaN
 105	1	6	16	bathroom	sun_acduarbnmmoglmiv.tif	930576.573175	930576.831769	930577.572011	6.924733e-01	6	none	NaN	NaN
 105	1	7	41	bathroom	sun_aoybiabnpadelefl.tif	930578.341595	930578.600184	930579.340555	6.924733e-01	31	39	930580.937028	1
 105	1	8	55	bathroom	sun_avhrdrntsqrjzccq.tif	930581.711598	930581.970188	930582.710407	6.924733e-01	45	none	NaN	NaN
 105	1	9	60	bathroom	sun_azqyogdvyhahyram.tif	930583.480013	930583.738602	930584.478881	7.425316e-01	50	37	930585.953022	1
 105	1	10	29	bathroom	sun_ahqjwnzgolcaoidx.tif	930586.724895	930586.983483	930587.723799	7.341886e-01	19	none	NaN	NaN
 105	1	11	15	bathroom	sun_abjtwfukuwddzted.tif	930588.493312	930588.751889	930589.492197	8.343052e-01	5	37	930590.817021	1
 105	1	12	39	bathroom	sun_anryaplzeujmzfkd.tif	930591.588037	930591.846632	930592.586865	6.757872e-01	29	none	NaN	NaN
 105	1	13	17	bathroom	sun_acegryoqftbzowsg.tif	930593.356458	930593.615050	930594.355386	8.092760e-01	7	none	NaN	NaN
 105	1	14	30	bathroom	sun_ajlawzvmubibwbpy.tif	930595.124876	930595.383469	930596.123729	8.176191e-01	20	none	NaN	NaN
 105	1	15	23	bathroom	sun_aghyqhbptboemmoq.tif	930596.893295	930597.151882	930597.892181	7.842469e-01	13	none	NaN	NaN
 105	1	16	53	bathroom	sun_ausgutylgojavyoq.tif	930598.661706	930598.920295	930599.660609	7.508747e-01	43	none	NaN	NaN
 105	1	17	59	bathroom	sun_axyrejkiiaqiurjk.tif	930600.430124	930600.688712	930601.429046	7.425316e-01	49	none	NaN	NaN
 105	1	18	58	bathroom	sun_axxbkopsgyouuebh.tif	930602.198541	930602.457136	930603.197486	7.341886e-01	48	none	NaN	NaN
 105	1	19	14	bathroom	sun_abapwbhyhkfixyex.tif	930603.966960	930604.225550	930604.965950	7.091594e-01	4	none	NaN	NaN
 105	1	20	33	bathroom	sun_aljolscmmzydegqp.tif	930605.735380	930605.993963	930606.734197	6.924733e-01	23	none	NaN	NaN
 105	1	21	46	bathroom	sun_apmqjbnwghzuhhzh.tif	930607.503795	930607.762384	930608.502596	7.341886e-01	36	39	930610.312750	1
 105	1	22	18	bathroom	sun_acgyywnybuveqsro.tif	930611.090675	930611.349270	930612.089637	6.757872e-01	8	none	NaN	NaN
 105	1	23	19	bathroom	sun_aclfzgynxzxlbepz.tif	930612.859100	930613.117684	930613.858077	7.759038e-01	9	none	NaN	NaN
 105	1	24	11	bathroom	labelme_sfxiulhjbhlyiyt.tif	930614.627515	930614.886100	930615.626318	6.674442e-01	1	39	930617.608926	1
 105	1	25	27	bathroom	sun_ahcvzmoyaycdoftf.tif	930618.381232	930618.639818	930619.380212	8.259621e-01	17	none	NaN	NaN
 105	1	26	21	bathroom	sun_aggnnqpdorgxpvce.tif	930620.149650	930620.408242	930621.148661	7.592177e-01	11	none	NaN	NaN
 105	1	27	42	bathroom	sun_apeeialkgkuxddgh.tif	930621.918065	930622.176656	930622.916961	7.592177e-01	32	none	NaN	NaN
 105	1	28	56	bathroom	sun_awnqiikzaispgmwo.tif	930623.686478	930623.945067	930624.685287	8.176191e-01	46	none	NaN	NaN
 105	1	29	44	bathroom	sun_apkruvsevgegsdwp.tif	930625.454895	930625.713488	930626.453908	7.425316e-01	34	none	NaN	NaN
 105	1	30	20	bathroom	sun_afcoljnjfoxjtgja.tif	930627.223320	930627.481903	930628.222226	7.175025e-01	10	none	NaN	NaN
 105	1	31	28	bathroom	sun_ahijqszoswveeyji.tif	930628.991730	930629.250322	930629.990671	8.426483e-01	18	none	NaN	NaN
 105	1	32	26	bathroom	sun_ahaulkltgpkeeemi.tif	930630.760151	930631.018742	930631.758960	7.675608e-01	16	none	NaN	NaN
 105	1	33	22	bathroom	sun_agguqiubmwhqqunb.tif	930632.528570	930632.787154	930633.527396	6.924733e-01	12	none	NaN	NaN
 105	1	34	47	bathroom	sun_apynckhmoftszqoq.tif	930634.296986	930634.555572	930635.295875	7.592177e-01	37	none	NaN	NaN
 105	1	35	45	bathroom	sun_apkxzenqapsujocq.tif	930636.065404	930636.323989	930637.064393	8.176191e-01	35	none	NaN	NaN
 105	1	36	34	bathroom	sun_alkosphxlxwjwgjd.tif	930637.833823	930638.092407	930638.832746	8.343052e-01	24	none	NaN	NaN
 105	1	37	12	bathroom	sun_aapitsgbtktqubfy.tif	930639.602235	930639.860824	930640.601069	8.092760e-01	2	none	NaN	NaN
 105	1	38	52	bathroom	sun_aunuadmjocsddsrl.tif	930641.370653	930641.629243	930642.369648	7.091594e-01	42	none	NaN	NaN
 105	1	39	50	bathroom	sun_aspsyogrekjtfozg.tif	930643.139074	930643.397660	930644.137987	7.925899e-01	40	none	NaN	NaN
 105	1	40	54	bathroom	sun_auzqhkafidnkrwmo.tif	930644.907484	930645.166076	930645.906495	6.507581e-01	44	none	NaN	NaN
 105	1	41	31	bathroom	sun_akiytfaagpdsphgz.tif	930646.675903	930646.934494	930647.674982	6.591011e-01	21	37	930650.504946	0
 105	1	42	48	bathroom	sun_aqrpegblszgcoujh.tif	930651.280461	930651.539051	930652.279372	8.092760e-01	38	none	NaN	NaN
 105	1	43	35	bathroom	sun_alotolagknyrgtsk.tif	930653.048883	930653.307468	930654.047828	8.009330e-01	25	none	NaN	NaN
 105	1	44	24	bathroom	sun_agrwbmhcpmfuwmsg.tif	930654.817299	930655.075886	930655.816098	7.258455e-01	14	none	NaN	NaN
 105	1	45	40	bathroom	sun_aofnryafpsjimzsb.tif	930656.585712	930656.844302	930657.584714	7.842469e-01	30	none	NaN	NaN
 105	1	46	36	bathroom	sun_ambriybtogmepttm.tif	930658.354128	930658.612722	930659.353027	7.759038e-01	26	none	NaN	NaN
 105	1	47	57	bathroom	sun_axldvoqbuvuggfmq.tif	930660.122550	930660.381141	930661.121534	8.259621e-01	47	none	NaN	NaN
 105	1	48	43	bathroom	sun_apjevzvycyhuqghb.tif	930661.890960	930662.149556	930662.889786	6.507581e-01	33	none	NaN	NaN
 105	1	49	32	bathroom	sun_aleqenyvunhactkl.tif	930663.659382	930663.917971	930664.658389	7.008164e-01	22	none	NaN	NaN
 105	1	50	51	bathroom	sun_atstyziqcmkahyxk.tif	930665.427797	930665.686388	930666.426661	8.009330e-01	41	none	NaN	NaN
 105	1	51	59	bathroom	sun_axyrejkiiaqiurjk.tif	930667.196217	930667.454806	930668.195079	7.008164e-01	49	none	NaN	NaN
 105	1	52	11	bathroom	labelme_sfxiulhjbhlyiyt.tif	930668.964634	930669.223225	930669.963438	7.341886e-01	1	none	NaN	NaN
 105	1	53	25	bathroom	sun_agyqfjcfkdcydepw.tif	930670.733051	930670.991638	930671.731983	7.508747e-01	15	none	NaN	NaN
 105	1	54	16	bathroom	sun_acduarbnmmoglmiv.tif	930672.501466	930672.760057	930673.500445	7.175025e-01	6	none	NaN	NaN
 105	1	55	21	bathroom	sun_aggnnqpdorgxpvce.tif	930674.269886	930674.528474	930675.268892	7.592177e-01	11	none	NaN	NaN
 105	1	56	51	bathroom	sun_atstyziqcmkahyxk.tif	930676.038302	930676.296894	930677.037256	7.925899e-01	41	none	NaN	NaN
 105	1	57	32	bathroom	sun_aleqenyvunhactkl.tif	930677.806722	930678.065306	930678.805591	7.925899e-01	22	none	NaN	NaN
 105	1	58	33	bathroom	sun_aljolscmmzydegqp.tif	930679.575138	930679.833723	930680.573996	7.675608e-01	23	none	NaN	NaN
 105	1	59	18	bathroom	sun_acgyywnybuveqsro.tif	930681.343555	930681.602143	930682.342468	7.091594e-01	8	none	NaN	NaN
 105	1	60	36	bathroom	sun_ambriybtogmepttm.tif	930683.111974	930683.370561	930684.110941	7.842469e-01	26	none	NaN	NaN
 105	1	61	13	bathroom	sun_aavhrsfjbserjtht.tif	930684.880389	930685.138976	930685.879372	8.509913e-01	3	none	NaN	NaN
 105	1	62	56	bathroom	sun_awnqiikzaispgmwo.tif	930686.648804	930686.907393	930687.647770	7.759038e-01	46	37	930689.448940	0
 105	1	63	14	bathroom	sun_abapwbhyhkfixyex.tif	930690.227342	930690.485940	930691.226263	6.591011e-01	4	none	NaN	NaN
 105	1	64	45	bathroom	sun_apkxzenqapsujocq.tif	930691.995761	930692.254355	930692.994585	8.092760e-01	35	none	NaN	NaN
 105	1	65	38	bathroom	sun_anhioqovhscjqqwb.tif	930693.764185	930694.022774	930694.762982	8.259621e-01	28	37	930695.953116	1
 105	1	66	44	bathroom	sun_apkruvsevgegsdwp.tif	930696.725445	930696.984038	930697.724349	8.009330e-01	34	37	930699.376935	1
 105	1	67	35	bathroom	sun_alotolagknyrgtsk.tif	930700.153837	930700.412425	930701.152687	6.674442e-01	25	none	NaN	NaN
 105	1	68	55	bathroom	sun_avhrdrntsqrjzccq.tif	930701.922254	930702.180847	930702.921046	6.757872e-01	45	39	930703.928671	1
 105	1	69	22	bathroom	sun_agguqiubmwhqqunb.tif	930704.700004	930704.958596	930705.698962	6.841303e-01	12	none	NaN	NaN
 105	1	70	24	bathroom	sun_agrwbmhcpmfuwmsg.tif	930706.468423	930706.727009	930707.467254	7.425316e-01	14	none	NaN	NaN
 105	1	71	47	bathroom	sun_apynckhmoftszqoq.tif	930708.236841	930708.495432	930709.235644	8.343052e-01	37	none	NaN	NaN
 105	1	72	53	bathroom	sun_ausgutylgojavyoq.tif	930710.005256	930710.263847	930711.004269	7.592177e-01	43	none	NaN	NaN
 105	1	73	15	bathroom	sun_abjtwfukuwddzted.tif	930711.773674	930712.032262	930712.772586	8.009330e-01	5	none	NaN	NaN
 105	1	74	28	bathroom	sun_ahijqszoswveeyji.tif	930713.542094	930713.800682	930714.540927	7.258455e-01	18	none	NaN	NaN
 105	1	75	26	bathroom	sun_ahaulkltgpkeeemi.tif	930715.310506	930715.569102	930716.309454	8.176191e-01	16	37	930717.648825	1
 105	1	76	58	bathroom	sun_axxbkopsgyouuebh.tif	930718.421924	930718.680511	930719.420896	6.841303e-01	48	none	NaN	NaN
 105	1	77	17	bathroom	sun_acegryoqftbzowsg.tif	930720.190340	930720.448927	930721.189214	6.841303e-01	7	39	930722.552984	0
 105	1	78	54	bathroom	sun_auzqhkafidnkrwmo.tif	930723.326779	930723.585367	930724.325586	8.343052e-01	44	none	NaN	NaN
 105	1	79	30	bathroom	sun_ajlawzvmubibwbpy.tif	930725.095197	930725.353813	930726.094112	7.175025e-01	20	none	NaN	NaN
 105	1	80	19	bathroom	sun_aclfzgynxzxlbepz.tif	930726.863613	930727.122203	930727.862500	8.176191e-01	9	none	NaN	NaN
 105	1	81	60	bathroom	sun_azqyogdvyhahyram.tif	930728.632031	930728.890621	930729.630852	7.258455e-01	50	none	NaN	NaN
 105	1	82	50	bathroom	sun_aspsyogrekjtfozg.tif	930730.400441	930730.659034	930731.399345	7.759038e-01	40	none	NaN	NaN
 105	1	83	42	bathroom	sun_apeeialkgkuxddgh.tif	930732.168861	930732.427448	930733.167738	7.008164e-01	32	none	NaN	NaN
 105	1	84	49	bathroom	sun_asfwthctfqerjvxr.tif	930733.937276	930734.195865	930734.936234	7.675608e-01	39	none	NaN	NaN
 105	1	85	27	bathroom	sun_ahcvzmoyaycdoftf.tif	930735.705699	930735.964285	930736.704514	7.008164e-01	17	none	NaN	NaN
 105	1	86	12	bathroom	sun_aapitsgbtktqubfy.tif	930737.474113	930737.732698	930738.473003	7.258455e-01	2	none	NaN	NaN
 105	1	87	23	bathroom	sun_aghyqhbptboemmoq.tif	930739.242532	930739.501119	930740.241374	6.507581e-01	13	39	930741.792803	1
 105	1	88	20	bathroom	sun_afcoljnjfoxjtgja.tif	930742.570822	930742.829418	930743.569765	8.426483e-01	10	none	NaN	NaN
 105	1	89	40	bathroom	sun_aofnryafpsjimzsb.tif	930744.339240	930744.597830	930745.338033	6.591011e-01	30	none	NaN	NaN
 105	1	90	39	bathroom	sun_anryaplzeujmzfkd.tif	930746.107655	930746.366247	930747.106653	6.841303e-01	29	none	NaN	NaN
 105	1	91	43	bathroom	sun_apjevzvycyhuqghb.tif	930747.876074	930748.134668	930748.874982	8.259621e-01	33	none	NaN	NaN
 105	1	92	34	bathroom	sun_alkosphxlxwjwgjd.tif	930749.644496	930749.903084	930750.643329	6.674442e-01	24	none	NaN	NaN
 105	1	93	41	bathroom	sun_aoybiabnpadelefl.tif	930751.412908	930751.671495	930752.411817	8.426483e-01	31	none	NaN	NaN
 105	1	94	46	bathroom	sun_apmqjbnwghzuhhzh.tif	930753.181325	930753.439913	930754.180259	6.757872e-01	36	none	NaN	NaN
 105	1	95	57	bathroom	sun_axldvoqbuvuggfmq.tif	930754.949743	930755.208332	930755.948545	8.509913e-01	47	none	NaN	NaN
 105	1	96	31	bathroom	sun_akiytfaagpdsphgz.tif	930756.718161	930756.976750	930757.717142	7.508747e-01	21	37	930759.488766	1
 105	1	97	37	bathroom	sun_amzlamotzwfkwjco.tif	930760.263337	930760.521924	930761.262221	7.091594e-01	27	none	NaN	NaN
 105	1	98	29	bathroom	sun_ahqjwnzgolcaoidx.tif	930762.031754	930762.290346	930763.030680	7.675608e-01	19	none	NaN	NaN
 105	1	99	52	bathroom	sun_aunuadmjocsddsrl.tif	930763.800173	930764.058764	930764.799145	7.925899e-01	42	none	NaN	NaN
 105	1	100	48	bathroom	sun_aqrpegblszgcoujh.tif	930765.568586	930765.827179	930766.567452	6.674442e-01	38	none	NaN	NaN
 105	2	1	62	kitchen	labelme_kxvouciolcpqplr.tif	930779.674215	930779.932804	930780.623045	8.259621e-01	52	none	NaN	NaN
 105	2	2	82	kitchen	sun_aenotlpyftoioydp.tif	930781.392580	930781.651173	930782.341361	7.008164e-01	72	none	NaN	NaN
 105	2	3	80	kitchen	sun_aegoxogugdkwpmpj.tif	930783.110948	930783.369542	930784.059708	8.259621e-01	70	none	NaN	NaN
 105	2	4	84	kitchen	sun_aexklacwqwezaorf.tif	930784.829316	930785.087905	930785.778211	7.508747e-01	74	none	NaN	NaN
 105	2	5	88	kitchen	sun_agubuxuukhzyzpdp.tif	930786.547687	930786.806275	930787.496589	7.425316e-01	78	none	NaN	NaN
 105	2	6	85	kitchen	sun_afuyedyxivkhecmu.tif	930788.266054	930788.524641	930789.215007	7.925899e-01	75	37	930790.472849	1
 105	2	7	73	kitchen	sun_abrcnpqqhmjwekyf.tif	930791.244001	930791.502591	930792.192904	7.592177e-01	63	none	NaN	NaN
 105	2	8	99	kitchen	sun_akcjzhbbjlbogpdi.tif	930792.962368	930793.220959	930793.911108	7.258455e-01	89	none	NaN	NaN
 105	2	9	75	kitchen	sun_acgtpgfybqjmzeyw.tif	930794.680732	930794.939321	930795.629504	7.592177e-01	65	none	NaN	NaN
 105	2	10	92	kitchen	sun_ahpczsiumwwocjkv.tif	930796.399105	930796.657690	930797.348032	7.592177e-01	82	none	NaN	NaN
 105	2	11	67	kitchen	sun_aarfiyshqohlwkmo.tif	930798.117469	930798.376055	930799.066357	7.508747e-01	57	37	930800.264722	1
 105	2	12	89	kitchen	sun_agzzivivdpnawacl.tif	930801.037030	930801.295614	930801.985986	7.091594e-01	79	none	NaN	NaN
 105	2	13	87	kitchen	sun_agorklincwxrdtga.tif	930802.755399	930803.013984	930803.704267	8.343052e-01	77	none	NaN	NaN
 105	2	14	70	kitchen	sun_abdxkyyxwfskuaqb.tif	930804.473760	930804.732351	930805.422605	7.008164e-01	60	none	NaN	NaN
 105	2	15	69	kitchen	sun_abdenxonkemggwsq.tif	930806.192127	930806.450725	930807.141039	6.507581e-01	59	none	NaN	NaN
 105	2	16	66	kitchen	sun_aapllqyqlykszopd.tif	930807.910495	930808.169088	930808.859241	7.341886e-01	56	39	930810.552892	1
 105	2	17	104	kitchen	sun_auticobqsbwgoppi.tif	930811.330548	930811.589140	930812.279401	8.009330e-01	94	none	NaN	NaN
 105	2	18	90	kitchen	sun_ahdycvpopffkzzsu.tif	930813.048919	930813.307506	930813.997847	6.841303e-01	80	none	NaN	NaN
 105	2	19	96	kitchen	sun_ajcbwwvdlsvjyzje.tif	930814.767283	930815.025878	930815.716021	6.924733e-01	86	none	NaN	NaN
 105	2	20	65	kitchen	sun_aamedkxepzlwuxes.tif	930816.485653	930816.744242	930817.434568	7.091594e-01	55	none	NaN	NaN
 105	2	21	106	kitchen	sun_awcpdzzznmweyyhv.tif	930818.204021	930818.462609	930819.152901	7.675608e-01	96	none	NaN	NaN
 105	2	22	83	kitchen	sun_aeqdocilnnpuvuhx.tif	930819.922385	930820.180975	930820.871151	8.426483e-01	73	none	NaN	NaN
 105	2	23	64	kitchen	sun_aadbddgrdsjugojn.tif	930821.640754	930821.899346	930822.589566	7.842469e-01	54	none	NaN	NaN
 105	2	24	61	kitchen	labelme_brsyyvweiuaazfr.tif	930823.359123	930823.617713	930824.307992	7.175025e-01	51	none	NaN	NaN
 105	2	25	107	kitchen	sun_axyyrmzcupyhlivc.tif	930825.077490	930825.336079	930826.026335	7.341886e-01	97	none	NaN	NaN
 105	2	26	91	kitchen	sun_ahljzhgcdpomplvg.tif	930826.795858	930827.054444	930827.744720	6.591011e-01	81	none	NaN	NaN
 105	2	27	94	kitchen	sun_ahywdevtimnqcsln.tif	930828.514225	930828.772815	930829.463015	7.508747e-01	84	none	NaN	NaN
 105	2	28	78	kitchen	sun_adgqasybjyktddhj.tif	930830.232594	930830.491182	930831.181410	7.258455e-01	68	none	NaN	NaN
 105	2	29	102	kitchen	sun_auaiucuqpdausiva.tif	930831.950959	930832.209550	930832.899793	6.924733e-01	92	none	NaN	NaN
 105	2	30	95	kitchen	sun_aixorpehvfykdynp.tif	930833.669327	930833.927917	930834.618263	6.674442e-01	85	none	NaN	NaN
 105	2	31	81	kitchen	sun_aehawpgmrlhlvcow.tif	930835.387698	930835.646291	930836.336652	7.008164e-01	71	39	930838.584683	1
 105	2	32	74	kitchen	sun_acfmftudsenhrfhy.tif	930839.358287	930839.616883	930840.307061	8.343052e-01	64	37	930841.504949	1
 105	2	33	72	kitchen	sun_abpwyqmlzafvklqo.tif	930842.277843	930842.536435	930843.226636	7.091594e-01	62	none	NaN	NaN
 105	2	34	109	kitchen	sun_aypmqwcualkenuoe.tif	930843.996217	930844.254806	930844.945026	7.175025e-01	99	37	930846.640569	1
 105	2	35	63	kitchen	labelme_rykdqxenmhulbdn.tif	930847.416268	930847.674857	930848.365192	7.759038e-01	53	none	NaN	NaN
 105	2	36	105	kitchen	sun_avszsnwsbuqfgzbn.tif	930849.134633	930849.393221	930850.083505	7.091594e-01	95	none	NaN	NaN
 105	2	37	98	kitchen	sun_akchetnepxlcxhsu.tif	930850.853003	930851.111592	930851.801838	8.092760e-01	88	none	NaN	NaN
 105	2	38	86	kitchen	sun_aggjlwcdjsjcaemh.tif	930852.571366	930852.829956	930853.520118	6.674442e-01	76	none	NaN	NaN
 105	2	39	68	kitchen	sun_aaxxjlsuzvqlgylf.tif	930854.289737	930854.548325	930855.238549	7.592177e-01	58	none	NaN	NaN
 105	2	40	71	kitchen	sun_abftihopvusyfakt.tif	930856.008101	930856.266695	930856.956889	8.426483e-01	61	none	NaN	NaN
 105	2	41	93	kitchen	sun_ahspylgoovwmwvgk.tif	930857.726475	930857.985066	930858.675378	7.675608e-01	83	39	930860.344808	1
 105	2	42	100	kitchen	sun_amjjdeyrggfqgmom.tif	930861.121498	930861.380083	930862.070452	8.176191e-01	90	none	NaN	NaN
 105	2	43	108	kitchen	sun_aymvwlarqodbwuoc.tif	930862.839866	930863.098459	930863.788631	6.757872e-01	98	none	NaN	NaN
 105	2	44	76	kitchen	sun_acwjdupvyjsugpay.tif	930864.558231	930864.816825	930865.507038	7.842469e-01	66	none	NaN	NaN
 105	2	45	97	kitchen	sun_ajkqhtgcbgpcwrwn.tif	930866.276599	930866.535188	930867.225442	7.759038e-01	87	none	NaN	NaN
 105	2	46	79	kitchen	sun_admlmbcdswaszruo.tif	930867.994967	930868.253558	930868.943777	8.259621e-01	69	none	NaN	NaN
 105	2	47	77	kitchen	sun_acxkpeoqbwcxfvip.tif	930869.713336	930869.971924	930870.662232	7.925899e-01	67	none	NaN	NaN
 105	2	48	103	kitchen	sun_aunzlwrbjumxhwdj.tif	930871.431703	930871.690295	930872.380487	7.842469e-01	93	none	NaN	NaN
 105	2	49	110	kitchen	sun_azmutvzbxypaceni.tif	930873.150073	930873.408659	930874.098854	8.009330e-01	100	none	NaN	NaN
 105	2	50	101	kitchen	sun_aqeaevwwwjoqhzvl.tif	930874.868438	930875.127030	930875.817387	7.175025e-01	91	none	NaN	NaN
 105	2	51	88	kitchen	sun_agubuxuukhzyzpdp.tif	930876.586804	930876.845396	930877.535598	8.176191e-01	78	none	NaN	NaN
 105	2	52	92	kitchen	sun_ahpczsiumwwocjkv.tif	930878.305132	930878.563761	930879.253892	6.924733e-01	82	39	930882.752751	1
 105	2	53	66	kitchen	sun_aapllqyqlykszopd.tif	930883.527037	930883.785599	930884.475807	8.092760e-01	56	none	NaN	NaN
 105	2	54	102	kitchen	sun_auaiucuqpdausiva.tif	930885.245365	930885.503961	930886.194133	7.925899e-01	92	37	930887.792723	1
 105	2	55	78	kitchen	sun_adgqasybjyktddhj.tif	930888.565333	930888.823918	930889.514242	7.925899e-01	68	none	NaN	NaN
 105	2	56	68	kitchen	sun_aaxxjlsuzvqlgylf.tif	930890.283698	930890.542285	930891.232615	6.757872e-01	58	none	NaN	NaN
 105	2	57	62	kitchen	labelme_kxvouciolcpqplr.tif	930892.002060	930892.260651	930892.950834	6.591011e-01	52	none	NaN	NaN
 105	2	58	100	kitchen	sun_amjjdeyrggfqgmom.tif	930893.720431	930893.979024	930894.669245	6.924733e-01	90	none	NaN	NaN
 105	2	59	74	kitchen	sun_acfmftudsenhrfhy.tif	930895.438800	930895.697392	930896.387654	7.175025e-01	64	none	NaN	NaN
 105	2	60	109	kitchen	sun_aypmqwcualkenuoe.tif	930897.157164	930897.415751	930898.106076	8.426483e-01	99	none	NaN	NaN
 105	2	61	105	kitchen	sun_avszsnwsbuqfgzbn.tif	930898.875531	930899.134123	930899.824393	7.592177e-01	95	none	NaN	NaN
 105	2	62	67	kitchen	sun_aarfiyshqohlwkmo.tif	930900.593899	930900.852494	930901.542855	6.841303e-01	57	none	NaN	NaN
 105	2	63	83	kitchen	sun_aeqdocilnnpuvuhx.tif	930902.312267	930902.570862	930903.261117	6.674442e-01	73	none	NaN	NaN
 105	2	64	90	kitchen	sun_ahdycvpopffkzzsu.tif	930904.030633	930904.289226	930904.979521	6.757872e-01	80	none	NaN	NaN
 105	2	65	75	kitchen	sun_acgtpgfybqjmzeyw.tif	930905.749001	930906.007590	930906.697884	7.759038e-01	65	none	NaN	NaN
 105	2	66	101	kitchen	sun_aqeaevwwwjoqhzvl.tif	930907.467371	930907.725956	930908.416311	7.759038e-01	91	none	NaN	NaN
 105	2	67	82	kitchen	sun_aenotlpyftoioydp.tif	930909.185736	930909.444329	930910.134491	6.841303e-01	72	39	930911.744693	1
 105	2	68	97	kitchen	sun_ajkqhtgcbgpcwrwn.tif	930912.522374	930912.780969	930913.471163	7.008164e-01	87	none	NaN	NaN
 105	2	69	77	kitchen	sun_acxkpeoqbwcxfvip.tif	930914.240743	930914.499328	930915.189579	7.341886e-01	67	none	NaN	NaN
 105	2	70	63	kitchen	labelme_rykdqxenmhulbdn.tif	930915.959109	930916.217696	930916.908013	7.425316e-01	53	none	NaN	NaN
 105	2	71	87	kitchen	sun_agorklincwxrdtga.tif	930917.677479	930917.936064	930918.626417	8.343052e-01	77	none	NaN	NaN
 105	2	72	84	kitchen	sun_aexklacwqwezaorf.tif	930919.395845	930919.654432	930920.344622	7.675608e-01	74	none	NaN	NaN
 105	2	73	94	kitchen	sun_ahywdevtimnqcsln.tif	930921.114210	930921.372799	930922.063004	6.924733e-01	84	37	930926.536820	1
 105	2	74	65	kitchen	sun_aamedkxepzlwuxes.tif	930927.312011	930927.570603	930928.260842	8.509913e-01	55	none	NaN	NaN
 105	2	75	96	kitchen	sun_ajcbwwvdlsvjyzje.tif	930929.030379	930929.288967	930929.979273	7.508747e-01	86	39	930931.616724	1
 105	2	76	106	kitchen	sun_awcpdzzznmweyyhv.tif	930932.392043	930932.650636	930933.340892	8.009330e-01	96	none	NaN	NaN
 105	2	77	80	kitchen	sun_aegoxogugdkwpmpj.tif	930934.110409	930934.368998	930935.059260	8.259621e-01	70	37	930936.192496	1
 105	2	78	95	kitchen	sun_aixorpehvfykdynp.tif	930936.963232	930937.221818	930937.911997	7.425316e-01	85	none	NaN	NaN
 105	2	79	81	kitchen	sun_aehawpgmrlhlvcow.tif	930938.681597	930938.940187	930939.630405	8.176191e-01	71	none	NaN	NaN
 105	2	80	76	kitchen	sun_acwjdupvyjsugpay.tif	930940.399966	930940.658556	930941.348754	6.591011e-01	66	39	930942.448638	1
 105	2	81	61	kitchen	labelme_brsyyvweiuaazfr.tif	930943.219420	930943.478012	930944.168209	8.092760e-01	51	none	NaN	NaN
 105	2	82	98	kitchen	sun_akchetnepxlcxhsu.tif	930944.937791	930945.196382	930945.886544	8.009330e-01	88	none	NaN	NaN
 105	2	83	91	kitchen	sun_ahljzhgcdpomplvg.tif	930946.656161	930946.914744	930947.605032	6.507581e-01	81	none	NaN	NaN
 105	2	84	72	kitchen	sun_abpwyqmlzafvklqo.tif	930948.374523	930948.633118	930949.323273	6.591011e-01	62	none	NaN	NaN
 105	2	85	107	kitchen	sun_axyyrmzcupyhlivc.tif	930950.092892	930950.351486	930951.041811	7.425316e-01	97	39	930952.208698	1
 105	2	86	104	kitchen	sun_auticobqsbwgoppi.tif	930952.979081	930953.237669	930953.927819	6.841303e-01	94	none	NaN	NaN
 105	2	87	108	kitchen	sun_aymvwlarqodbwuoc.tif	930954.697449	930954.956041	930955.646331	7.258455e-01	98	none	NaN	NaN
 105	2	88	93	kitchen	sun_ahspylgoovwmwvgk.tif	930956.415819	930956.674409	930957.364614	8.176191e-01	83	none	NaN	NaN
 105	2	89	86	kitchen	sun_aggjlwcdjsjcaemh.tif	930958.134184	930958.392777	930959.082971	8.176191e-01	76	none	NaN	NaN
 105	2	90	103	kitchen	sun_aunzlwrbjumxhwdj.tif	930959.852554	930960.111145	930960.801371	6.507581e-01	93	none	NaN	NaN
 105	2	91	73	kitchen	sun_abrcnpqqhmjwekyf.tif	930961.570924	930961.829508	930962.519859	7.341886e-01	63	none	NaN	NaN
 105	2	92	89	kitchen	sun_agzzivivdpnawacl.tif	930963.289291	930963.547877	930964.238105	7.675608e-01	79	none	NaN	NaN
 105	2	93	71	kitchen	sun_abftihopvusyfakt.tif	930965.007653	930965.266244	930965.956504	6.757872e-01	61	none	NaN	NaN
 105	2	94	85	kitchen	sun_afuyedyxivkhecmu.tif	930966.726017	930966.984610	930967.674759	8.509913e-01	75	none	NaN	NaN
 105	2	95	64	kitchen	sun_aadbddgrdsjugojn.tif	930968.444391	930968.702976	930969.393131	6.674442e-01	54	none	NaN	NaN
 105	2	96	110	kitchen	sun_azmutvzbxypaceni.tif	930970.162760	930970.421351	930971.111499	8.426483e-01	100	none	NaN	NaN
 105	2	97	70	kitchen	sun_abdxkyyxwfskuaqb.tif	930971.881127	930972.139712	930972.829896	8.343052e-01	60	none	NaN	NaN
 105	2	98	99	kitchen	sun_akcjzhbbjlbogpdi.tif	930973.599492	930973.858082	930974.548281	7.842469e-01	89	none	NaN	NaN
 105	2	99	79	kitchen	sun_admlmbcdswaszruo.tif	930975.317859	930975.576451	930976.266802	8.092760e-01	69	none	NaN	NaN
 105	2	100	69	kitchen	sun_abdenxonkemggwsq.tif	930977.036227	930977.294819	930977.985157	7.258455e-01	59	none	NaN	NaN
 105	3	1	27	bathroom	sun_ahcvzmoyaycdoftf.tif	930985.744846	930986.003435	930986.818867	8.259621e-01	17	none	NaN	NaN
 105	3	2	21	bathroom	sun_aggnnqpdorgxpvce.tif	930987.588336	930987.846927	930988.662281	6.924733e-01	11	39	930990.048457	1
 105	3	3	19	bathroom	sun_aclfzgynxzxlbepz.tif	930990.824873	930991.083461	930991.898842	8.259621e-01	9	none	NaN	NaN
 105	3	4	46	bathroom	sun_apmqjbnwghzuhhzh.tif	930992.668369	930992.926952	930993.742257	7.091594e-01	36	none	NaN	NaN
 105	3	5	17	bathroom	sun_acegryoqftbzowsg.tif	930994.511858	930994.770448	930995.585961	8.426483e-01	7	none	NaN	NaN
 105	3	6	34	bathroom	sun_alkosphxlxwjwgjd.tif	930996.355349	930996.613937	930997.429470	7.258455e-01	24	none	NaN	NaN
 105	3	7	18	bathroom	sun_acgyywnybuveqsro.tif	930998.198829	930998.457425	930999.272787	7.091594e-01	8	none	NaN	NaN
 105	3	8	38	bathroom	sun_anhioqovhscjqqwb.tif	931000.042333	931000.300919	931001.116286	6.757872e-01	28	none	NaN	NaN
 105	3	9	50	bathroom	sun_aspsyogrekjtfozg.tif	931001.885822	931002.144413	931002.959795	8.426483e-01	40	none	NaN	NaN
 105	3	10	29	bathroom	sun_ahqjwnzgolcaoidx.tif	931003.729314	931003.987903	931004.803387	7.091594e-01	19	39	931008.720435	0
 105	3	11	53	bathroom	sun_ausgutylgojavyoq.tif	931009.493354	931009.751941	931010.567287	6.591011e-01	43	none	NaN	NaN
 105	3	12	59	bathroom	sun_axyrejkiiaqiurjk.tif	931011.336845	931011.595435	931012.410922	7.842469e-01	49	none	NaN	NaN
 105	3	13	24	bathroom	sun_agrwbmhcpmfuwmsg.tif	931013.180335	931013.438928	931014.254276	8.009330e-01	14	none	NaN	NaN
 105	3	14	58	bathroom	sun_axxbkopsgyouuebh.tif	931015.023827	931015.282421	931016.097882	7.508747e-01	48	none	NaN	NaN
 105	3	15	31	bathroom	sun_akiytfaagpdsphgz.tif	931016.867321	931017.125906	931017.941279	6.841303e-01	21	none	NaN	NaN
 105	3	16	13	bathroom	sun_aavhrsfjbserjtht.tif	931018.710807	931018.969398	931019.784781	7.592177e-01	3	none	NaN	NaN
 105	3	17	54	bathroom	sun_auzqhkafidnkrwmo.tif	931020.554300	931020.812887	931021.628241	8.343052e-01	44	37	931022.840430	1
 105	3	18	37	bathroom	sun_amzlamotzwfkwjco.tif	931023.615665	931023.874253	931024.689640	7.341886e-01	27	none	NaN	NaN
 105	3	19	49	bathroom	sun_asfwthctfqerjvxr.tif	931025.459158	931025.717742	931026.533224	7.175025e-01	39	none	NaN	NaN
 105	3	20	45	bathroom	sun_apkxzenqapsujocq.tif	931027.302646	931027.561233	931028.376729	6.757872e-01	35	none	NaN	NaN
 105	3	21	39	bathroom	sun_anryaplzeujmzfkd.tif	931029.146139	931029.404730	931030.220169	6.507581e-01	29	none	NaN	NaN
 105	3	22	51	bathroom	sun_atstyziqcmkahyxk.tif	931030.989626	931031.248216	931032.063534	7.675608e-01	41	none	NaN	NaN
 105	3	23	30	bathroom	sun_ajlawzvmubibwbpy.tif	931032.833121	931033.091708	931033.907183	6.924733e-01	20	none	NaN	NaN
 105	3	24	33	bathroom	sun_aljolscmmzydegqp.tif	931034.676610	931034.935201	931035.750704	7.842469e-01	23	none	NaN	NaN
 105	3	25	20	bathroom	sun_afcoljnjfoxjtgja.tif	931036.520102	931036.778688	931037.593990	6.757872e-01	10	none	NaN	NaN
 105	3	26	60	bathroom	sun_azqyogdvyhahyram.tif	931038.363595	931038.622183	931039.437584	8.092760e-01	50	none	NaN	NaN
 105	3	27	22	bathroom	sun_agguqiubmwhqqunb.tif	931040.207087	931040.465678	931041.281106	7.675608e-01	12	39	931042.888819	1
 105	3	28	55	bathroom	sun_avhrdrntsqrjzccq.tif	931043.660500	931043.919089	931044.734528	7.175025e-01	45	none	NaN	NaN
 105	3	29	52	bathroom	sun_aunuadmjocsddsrl.tif	931045.503994	931045.762578	931046.578079	7.008164e-01	42	none	NaN	NaN
 105	3	30	14	bathroom	sun_abapwbhyhkfixyex.tif	931047.347489	931047.606077	931048.421434	7.925899e-01	4	none	NaN	NaN
 105	3	31	35	bathroom	sun_alotolagknyrgtsk.tif	931049.190980	931049.449569	931050.264907	7.759038e-01	25	39	931051.568698	1
 105	3	32	11	bathroom	labelme_sfxiulhjbhlyiyt.tif	931052.344097	931052.602685	931053.418023	7.341886e-01	1	none	NaN	NaN
 105	3	33	48	bathroom	sun_aqrpegblszgcoujh.tif	931054.187586	931054.446180	931055.261562	8.259621e-01	38	none	NaN	NaN
 105	3	34	28	bathroom	sun_ahijqszoswveeyji.tif	931056.031080	931056.289687	931057.104987	7.508747e-01	18	39	931058.592706	1
 105	3	35	57	bathroom	sun_axldvoqbuvuggfmq.tif	931059.367714	931059.626306	931060.441673	7.925899e-01	47	none	NaN	NaN
 105	3	36	26	bathroom	sun_ahaulkltgpkeeemi.tif	931061.211207	931061.469801	931062.285101	7.258455e-01	16	none	NaN	NaN
 105	3	37	23	bathroom	sun_aghyqhbptboemmoq.tif	931063.054697	931063.313289	931064.128688	8.176191e-01	13	none	NaN	NaN
 105	3	38	47	bathroom	sun_apynckhmoftszqoq.tif	931064.898190	931065.156781	931065.972083	7.425316e-01	37	none	NaN	NaN
 105	3	39	42	bathroom	sun_apeeialkgkuxddgh.tif	931066.741679	931067.000267	931067.815695	7.675608e-01	32	39	931068.904571	1
 105	3	40	25	bathroom	sun_agyqfjcfkdcydepw.tif	931069.677921	931069.936510	931070.751951	6.841303e-01	15	none	NaN	NaN
 105	3	41	32	bathroom	sun_aleqenyvunhactkl.tif	931071.521411	931071.780003	931072.595316	7.508747e-01	22	39	931074.000680	1
 105	3	42	12	bathroom	sun_aapitsgbtktqubfy.tif	931074.774632	931075.033222	931075.848525	8.009330e-01	2	none	NaN	NaN
 105	3	43	36	bathroom	sun_ambriybtogmepttm.tif	931076.618122	931076.876713	931077.692157	7.008164e-01	26	none	NaN	NaN
 105	3	44	44	bathroom	sun_apkruvsevgegsdwp.tif	931078.461618	931078.720205	931079.535697	8.509913e-01	34	none	NaN	NaN
 105	3	45	56	bathroom	sun_awnqiikzaispgmwo.tif	931080.305105	931080.563691	931081.379036	6.757872e-01	46	none	NaN	NaN
 105	3	46	15	bathroom	sun_abjtwfukuwddzted.tif	931082.148597	931082.407184	931083.222569	8.426483e-01	5	none	NaN	NaN
 105	3	47	16	bathroom	sun_acduarbnmmoglmiv.tif	931083.992091	931084.250675	931085.066030	6.924733e-01	6	none	NaN	NaN
 105	3	48	43	bathroom	sun_apjevzvycyhuqghb.tif	931085.835576	931086.094172	931086.909490	7.759038e-01	33	none	NaN	NaN
 105	3	49	40	bathroom	sun_aofnryafpsjimzsb.tif	931087.679071	931087.937664	931088.752986	6.674442e-01	30	none	NaN	NaN
 105	3	50	41	bathroom	sun_aoybiabnpadelefl.tif	931089.522559	931089.781154	931090.596541	6.674442e-01	31	none	NaN	NaN
 105	3	51	27	bathroom	sun_ahcvzmoyaycdoftf.tif	931091.366054	931091.624644	931092.440155	8.343052e-01	17	37	931094.352532	1
 105	3	52	36	bathroom	sun_ambriybtogmepttm.tif	931095.128109	931095.386697	931096.202067	8.343052e-01	26	none	NaN	NaN
 105	3	53	37	bathroom	sun_amzlamotzwfkwjco.tif	931096.971603	931097.230193	931098.045624	8.092760e-01	27	none	NaN	NaN
 105	3	54	14	bathroom	sun_abapwbhyhkfixyex.tif	931098.815093	931099.073684	931099.889143	8.009330e-01	4	none	NaN	NaN
 105	3	55	40	bathroom	sun_aofnryafpsjimzsb.tif	931100.658586	931100.917173	931101.732539	7.175025e-01	30	none	NaN	NaN
 105	3	56	41	bathroom	sun_aoybiabnpadelefl.tif	931102.502072	931102.760664	931103.575995	6.591011e-01	31	none	NaN	NaN
 105	3	57	39	bathroom	sun_anryaplzeujmzfkd.tif	931104.345567	931104.604151	931105.419550	6.841303e-01	29	none	NaN	NaN
 105	3	58	43	bathroom	sun_apjevzvycyhuqghb.tif	931106.189035	931106.447648	931107.262923	6.924733e-01	33	none	NaN	NaN
 105	3	59	60	bathroom	sun_azqyogdvyhahyram.tif	931108.032549	931108.291139	931109.106494	7.008164e-01	50	39	931110.296731	1
 105	3	60	38	bathroom	sun_anhioqovhscjqqwb.tif	931111.068884	931111.327479	931112.142900	7.258455e-01	28	none	NaN	NaN
 105	3	61	12	bathroom	sun_aapitsgbtktqubfy.tif	931112.912383	931113.170967	931113.986275	7.425316e-01	2	none	NaN	NaN
 105	3	62	11	bathroom	labelme_sfxiulhjbhlyiyt.tif	931114.755871	931115.014459	931115.829965	7.759038e-01	1	none	NaN	NaN
 105	3	63	30	bathroom	sun_ajlawzvmubibwbpy.tif	931116.599365	931116.857956	931117.673383	8.176191e-01	20	none	NaN	NaN
 105	3	64	28	bathroom	sun_ahijqszoswveeyji.tif	931118.442856	931118.701443	931119.516865	6.507581e-01	18	none	NaN	NaN
 105	3	65	48	bathroom	sun_aqrpegblszgcoujh.tif	931120.286345	931120.544934	931121.360276	7.508747e-01	38	none	NaN	NaN
 105	3	66	25	bathroom	sun_agyqfjcfkdcydepw.tif	931122.129837	931122.388422	931123.203757	7.425316e-01	15	none	NaN	NaN
 105	3	67	23	bathroom	sun_aghyqhbptboemmoq.tif	931123.973326	931124.231915	931125.047323	6.924733e-01	13	none	NaN	NaN
 105	3	68	16	bathroom	sun_acduarbnmmoglmiv.tif	931125.816815	931126.075405	931126.890696	7.341886e-01	6	none	NaN	NaN
 105	3	69	58	bathroom	sun_axxbkopsgyouuebh.tif	931127.660309	931127.918904	931128.734243	8.259621e-01	48	none	NaN	NaN
 105	3	70	21	bathroom	sun_aggnnqpdorgxpvce.tif	931129.503805	931129.762396	931130.577840	8.176191e-01	11	none	NaN	NaN
 105	3	71	26	bathroom	sun_ahaulkltgpkeeemi.tif	931131.347292	931131.605885	931132.421363	8.092760e-01	16	none	NaN	NaN
 105	3	72	34	bathroom	sun_alkosphxlxwjwgjd.tif	931133.190780	931133.449371	931134.264708	6.507581e-01	24	none	NaN	NaN
 105	3	73	52	bathroom	sun_aunuadmjocsddsrl.tif	931135.034278	931135.292862	931136.108269	6.674442e-01	42	none	NaN	NaN
 105	3	74	15	bathroom	sun_abjtwfukuwddzted.tif	931136.877764	931137.136357	931137.951664	7.592177e-01	5	none	NaN	NaN
 105	3	75	13	bathroom	sun_aavhrsfjbserjtht.tif	931138.721261	931138.979847	931139.795292	7.675608e-01	3	none	NaN	NaN
 105	3	76	46	bathroom	sun_apmqjbnwghzuhhzh.tif	931140.564748	931140.823335	931141.638683	8.426483e-01	36	none	NaN	NaN
 105	3	77	59	bathroom	sun_axyrejkiiaqiurjk.tif	931142.408243	931142.666830	931143.482198	7.925899e-01	49	none	NaN	NaN
 105	3	78	42	bathroom	sun_apeeialkgkuxddgh.tif	931144.251729	931144.510325	931145.325632	7.842469e-01	32	none	NaN	NaN
 105	3	79	24	bathroom	sun_agrwbmhcpmfuwmsg.tif	931146.095220	931146.353814	931147.169152	8.009330e-01	14	none	NaN	NaN
 105	3	80	35	bathroom	sun_alotolagknyrgtsk.tif	931147.938713	931148.197304	931149.012662	7.175025e-01	25	37	931150.432563	1
 105	3	81	57	bathroom	sun_axldvoqbuvuggfmq.tif	931151.208617	931151.467204	931152.282660	8.176191e-01	47	none	NaN	NaN
 105	3	82	32	bathroom	sun_aleqenyvunhactkl.tif	931153.052106	931153.310697	931154.126166	7.425316e-01	22	none	NaN	NaN
 105	3	83	55	bathroom	sun_avhrdrntsqrjzccq.tif	931154.895601	931155.154190	931155.969567	7.925899e-01	45	37	931157.560671	1
 105	3	84	22	bathroom	sun_agguqiubmwhqqunb.tif	931158.332333	931158.590925	931159.406319	6.591011e-01	12	none	NaN	NaN
 105	3	85	45	bathroom	sun_apkxzenqapsujocq.tif	931160.175823	931160.434419	931161.249876	7.341886e-01	35	none	NaN	NaN
 105	3	86	20	bathroom	sun_afcoljnjfoxjtgja.tif	931162.019316	931162.277910	931163.093333	7.842469e-01	10	37	931166.072682	1
 105	3	87	19	bathroom	sun_aclfzgynxzxlbepz.tif	931166.849098	931167.107690	931167.922980	7.592177e-01	9	none	NaN	NaN
 105	3	88	31	bathroom	sun_akiytfaagpdsphgz.tif	931168.692591	931168.951181	931169.766665	7.592177e-01	21	none	NaN	NaN
 105	3	89	47	bathroom	sun_apynckhmoftszqoq.tif	931170.536082	931170.794666	931171.610027	8.509913e-01	37	none	NaN	NaN
 105	3	90	17	bathroom	sun_acegryoqftbzowsg.tif	931172.379573	931172.638161	931173.453667	6.841303e-01	7	none	NaN	NaN
 105	3	91	33	bathroom	sun_aljolscmmzydegqp.tif	931174.223062	931174.481655	931175.297065	7.258455e-01	23	none	NaN	NaN
 105	3	92	51	bathroom	sun_atstyziqcmkahyxk.tif	931176.066554	931176.325140	931177.140566	6.674442e-01	41	37	931178.408486	1
 105	3	93	54	bathroom	sun_auzqhkafidnkrwmo.tif	931179.186310	931179.444894	931180.260374	8.176191e-01	44	none	NaN	NaN
 105	3	94	18	bathroom	sun_acgyywnybuveqsro.tif	931181.029802	931181.288387	931182.103735	7.008164e-01	8	none	NaN	NaN
 105	3	95	50	bathroom	sun_aspsyogrekjtfozg.tif	931182.873294	931183.131881	931183.947213	7.091594e-01	40	none	NaN	NaN
 105	3	96	53	bathroom	sun_ausgutylgojavyoq.tif	931184.716781	931184.975371	931185.790870	7.759038e-01	43	none	NaN	NaN
 105	3	97	56	bathroom	sun_awnqiikzaispgmwo.tif	931186.560275	931186.818861	931187.634312	8.092760e-01	46	37	931188.744551	1
 105	3	98	49	bathroom	sun_asfwthctfqerjvxr.tif	931189.521529	931189.780122	931190.595487	7.592177e-01	39	none	NaN	NaN
 105	3	99	44	bathroom	sun_apkruvsevgegsdwp.tif	931191.365029	931191.623621	931192.439060	6.591011e-01	34	none	NaN	NaN
 105	3	100	29	bathroom	sun_ahqjwnzgolcaoidx.tif	931193.208523	931193.467108	931194.282494	8.343052e-01	19	none	NaN	NaN
 105	4	1	68	kitchen	sun_aaxxjlsuzvqlgylf.tif	931204.177711	931204.436299	931205.134883	7.258455e-01	58	none	NaN	NaN
 105	4	2	77	kitchen	sun_acxkpeoqbwcxfvip.tif	931205.904420	931206.163012	931206.861567	7.008164e-01	67	none	NaN	NaN
 105	4	3	79	kitchen	sun_admlmbcdswaszruo.tif	931207.631129	931207.889721	931208.588232	8.176191e-01	69	none	NaN	NaN
 105	4	4	86	kitchen	sun_aggjlwcdjsjcaemh.tif	931209.357841	931209.616426	931210.315061	7.091594e-01	76	none	NaN	NaN
 105	4	5	94	kitchen	sun_ahywdevtimnqcsln.tif	931211.084550	931211.343137	931212.041772	7.008164e-01	84	none	NaN	NaN
 105	4	6	95	kitchen	sun_aixorpehvfykdynp.tif	931212.811257	931213.069845	931213.768471	6.757872e-01	85	none	NaN	NaN
 105	4	7	75	kitchen	sun_acgtpgfybqjmzeyw.tif	931214.537968	931214.796554	931215.495160	7.508747e-01	65	none	NaN	NaN
 105	4	8	88	kitchen	sun_agubuxuukhzyzpdp.tif	931216.264675	931216.523263	931217.221867	6.591011e-01	78	none	NaN	NaN
 105	4	9	85	kitchen	sun_afuyedyxivkhecmu.tif	931217.991382	931218.249971	931218.948672	7.842469e-01	75	37	931219.968460	1
 105	4	10	104	kitchen	sun_auticobqsbwgoppi.tif	931220.744108	931221.002697	931221.701223	7.592177e-01	94	39	931222.784545	1
 105	4	11	72	kitchen	sun_abpwyqmlzafvklqo.tif	931223.555224	931223.813811	931224.512448	7.925899e-01	62	none	NaN	NaN
 105	4	12	66	kitchen	sun_aapllqyqlykszopd.tif	931225.281928	931225.540522	931226.239035	7.258455e-01	56	none	NaN	NaN
 105	4	13	69	kitchen	sun_abdenxonkemggwsq.tif	931227.008642	931227.267230	931227.965808	8.092760e-01	59	39	931229.696299	1
 105	4	14	108	kitchen	sun_aymvwlarqodbwuoc.tif	931230.470402	931230.728997	931231.427679	6.757872e-01	98	none	NaN	NaN
 105	4	15	105	kitchen	sun_avszsnwsbuqfgzbn.tif	931232.197108	931232.455698	931233.154346	7.508747e-01	95	none	NaN	NaN
 105	4	16	78	kitchen	sun_adgqasybjyktddhj.tif	931233.923816	931234.182411	931234.881023	8.009330e-01	68	none	NaN	NaN
 105	4	17	101	kitchen	sun_aqeaevwwwjoqhzvl.tif	931235.650527	931235.909119	931236.607793	8.509913e-01	91	39	931237.704517	1
 105	4	18	99	kitchen	sun_akcjzhbbjlbogpdi.tif	931238.478323	931238.736916	931239.435612	6.841303e-01	89	none	NaN	NaN
 105	4	19	90	kitchen	sun_ahdycvpopffkzzsu.tif	931240.205035	931240.463626	931241.162234	7.425316e-01	80	none	NaN	NaN
 105	4	20	70	kitchen	sun_abdxkyyxwfskuaqb.tif	931241.931744	931242.190336	931242.888847	8.343052e-01	60	none	NaN	NaN
 105	4	21	81	kitchen	sun_aehawpgmrlhlvcow.tif	931243.658455	931243.917045	931244.615618	8.009330e-01	71	37	931246.024275	0
 105	4	22	106	kitchen	sun_awcpdzzznmweyyhv.tif	931246.794889	931247.053478	931247.752114	8.092760e-01	96	none	NaN	NaN
 105	4	23	93	kitchen	sun_ahspylgoovwmwvgk.tif	931248.521600	931248.780188	931249.478803	6.507581e-01	83	none	NaN	NaN
 105	4	24	97	kitchen	sun_ajkqhtgcbgpcwrwn.tif	931250.248311	931250.506903	931251.205426	7.175025e-01	87	none	NaN	NaN
 105	4	25	91	kitchen	sun_ahljzhgcdpomplvg.tif	931251.975021	931252.233606	931252.932269	7.258455e-01	81	none	NaN	NaN
 105	4	26	96	kitchen	sun_ajcbwwvdlsvjyzje.tif	931253.701727	931253.960319	931254.658935	8.092760e-01	86	none	NaN	NaN
 105	4	27	62	kitchen	labelme_kxvouciolcpqplr.tif	931255.428436	931255.687027	931256.385714	7.759038e-01	52	none	NaN	NaN
 105	4	28	109	kitchen	sun_aypmqwcualkenuoe.tif	931257.155149	931257.413734	931258.112347	7.759038e-01	99	37	931259.360482	1
 105	4	29	76	kitchen	sun_acwjdupvyjsugpay.tif	931260.133097	931260.391678	931261.090238	8.092760e-01	66	none	NaN	NaN
 105	4	30	87	kitchen	sun_agorklincwxrdtga.tif	931261.859804	931262.118393	931262.817042	8.426483e-01	77	none	NaN	NaN
 105	4	31	102	kitchen	sun_auaiucuqpdausiva.tif	931263.586512	931263.845102	931264.543611	8.343052e-01	92	none	NaN	NaN
 105	4	32	110	kitchen	sun_azmutvzbxypaceni.tif	931265.313219	931265.571806	931266.270515	7.675608e-01	100	39	931267.448527	1
 105	4	33	98	kitchen	sun_akchetnepxlcxhsu.tif	931268.224434	931268.483022	931269.181711	6.674442e-01	88	none	NaN	NaN
 105	4	34	100	kitchen	sun_amjjdeyrggfqgmom.tif	931269.951144	931270.209734	931270.908235	7.341886e-01	90	37	931273.040254	1
 105	4	35	107	kitchen	sun_axyyrmzcupyhlivc.tif	931273.813300	931274.071883	931274.770572	7.675608e-01	97	none	NaN	NaN
 105	4	36	65	kitchen	sun_aamedkxepzlwuxes.tif	931275.540012	931275.798597	931276.497170	8.176191e-01	55	none	NaN	NaN
 105	4	37	64	kitchen	sun_aadbddgrdsjugojn.tif	931277.266718	931277.525307	931278.223798	7.341886e-01	54	37	931279.272431	1
 105	4	38	89	kitchen	sun_agzzivivdpnawacl.tif	931280.044463	931280.303053	931281.001599	8.426483e-01	79	none	NaN	NaN
 105	4	39	103	kitchen	sun_aunzlwrbjumxhwdj.tif	931281.771179	931282.029766	931282.728423	6.841303e-01	93	none	NaN	NaN
 105	4	40	71	kitchen	sun_abftihopvusyfakt.tif	931283.497885	931283.756472	931284.455136	7.425316e-01	61	none	NaN	NaN
 105	4	41	83	kitchen	sun_aeqdocilnnpuvuhx.tif	931285.224597	931285.483187	931286.181870	6.507581e-01	73	none	NaN	NaN
 105	4	42	73	kitchen	sun_abrcnpqqhmjwekyf.tif	931286.951304	931287.209896	931287.908408	6.507581e-01	63	none	NaN	NaN
 105	4	43	84	kitchen	sun_aexklacwqwezaorf.tif	931288.678012	931288.936602	931289.635155	7.175025e-01	74	none	NaN	NaN
 105	4	44	92	kitchen	sun_ahpczsiumwwocjkv.tif	931290.404720	931290.663312	931291.361914	7.675608e-01	82	none	NaN	NaN
 105	4	45	82	kitchen	sun_aenotlpyftoioydp.tif	931292.131431	931292.390021	931293.088509	8.176191e-01	72	39	931294.080517	1
 105	4	46	80	kitchen	sun_aegoxogugdkwpmpj.tif	931294.850787	931295.109375	931295.808034	6.924733e-01	70	none	NaN	NaN
 105	4	47	61	kitchen	labelme_brsyyvweiuaazfr.tif	931296.577498	931296.836086	931297.534698	7.091594e-01	51	none	NaN	NaN
 105	4	48	63	kitchen	labelme_rykdqxenmhulbdn.tif	931298.304210	931298.562799	931299.261286	8.176191e-01	53	37	931300.616479	1
 105	4	49	67	kitchen	sun_aarfiyshqohlwkmo.tif	931301.390595	931301.649188	931302.347832	7.008164e-01	57	none	NaN	NaN
 105	4	50	74	kitchen	sun_acfmftudsenhrfhy.tif	931303.117306	931303.375895	931304.074551	7.425316e-01	64	none	NaN	NaN
 105	4	51	91	kitchen	sun_ahljzhgcdpomplvg.tif	931304.844016	931305.102604	931305.801128	7.925899e-01	81	none	NaN	NaN
 105	4	52	85	kitchen	sun_afuyedyxivkhecmu.tif	931306.570724	931306.829313	931307.527842	8.259621e-01	75	none	NaN	NaN
 105	4	53	78	kitchen	sun_adgqasybjyktddhj.tif	931308.297434	931308.556022	931309.254522	6.757872e-01	68	none	NaN	NaN
 105	4	54	92	kitchen	sun_ahpczsiumwwocjkv.tif	931310.024140	931310.282731	931310.981369	6.591011e-01	82	none	NaN	NaN
 105	4	55	87	kitchen	sun_agorklincwxrdtga.tif	931311.750851	931312.009439	931312.708021	8.259621e-01	77	none	NaN	NaN
 105	4	56	102	kitchen	sun_auaiucuqpdausiva.tif	931313.477561	931313.736145	931314.434666	7.258455e-01	92	none	NaN	NaN
 105	4	57	66	kitchen	sun_aapllqyqlykszopd.tif	931315.204266	931315.462858	931316.161504	8.009330e-01	56	39	931317.128514	1
 105	4	58	106	kitchen	sun_awcpdzzznmweyyhv.tif	931317.906941	931318.165529	931318.864222	7.091594e-01	96	none	NaN	NaN
 105	4	59	64	kitchen	sun_aadbddgrdsjugojn.tif	931319.633647	931319.892240	931320.590914	7.091594e-01	54	none	NaN	NaN
 105	4	60	80	kitchen	sun_aegoxogugdkwpmpj.tif	931321.360361	931321.618953	931322.317509	6.674442e-01	70	none	NaN	NaN
 105	4	61	73	kitchen	sun_abrcnpqqhmjwekyf.tif	931323.087069	931323.345662	931324.044353	7.675608e-01	63	none	NaN	NaN
 105	4	62	105	kitchen	sun_avszsnwsbuqfgzbn.tif	931324.813777	931325.072366	931325.771089	7.425316e-01	95	none	NaN	NaN
 105	4	63	62	kitchen	labelme_kxvouciolcpqplr.tif	931326.540485	931326.799075	931327.497790	7.175025e-01	52	none	NaN	NaN
 105	4	64	89	kitchen	sun_agzzivivdpnawacl.tif	931328.267195	931328.525787	931329.224383	6.674442e-01	79	none	NaN	NaN
 105	4	65	103	kitchen	sun_aunzlwrbjumxhwdj.tif	931329.993906	931330.252496	931330.951006	8.259621e-01	93	37	931332.008216	1
 105	4	66	108	kitchen	sun_aymvwlarqodbwuoc.tif	931332.779995	931333.038585	931333.737269	8.426483e-01	98	none	NaN	NaN
 105	4	67	72	kitchen	sun_abpwyqmlzafvklqo.tif	931334.506704	931334.765294	931335.463921	7.592177e-01	62	none	NaN	NaN
 105	4	68	70	kitchen	sun_abdxkyyxwfskuaqb.tif	931336.233411	931336.492004	931337.190683	6.924733e-01	60	none	NaN	NaN
 105	4	69	68	kitchen	sun_aaxxjlsuzvqlgylf.tif	931337.960125	931338.218713	931338.917398	6.757872e-01	58	37	931339.872479	1
 105	4	70	110	kitchen	sun_azmutvzbxypaceni.tif	931340.646117	931340.904706	931341.603237	7.508747e-01	100	none	NaN	NaN
 105	4	71	107	kitchen	sun_axyyrmzcupyhlivc.tif	931342.372823	931342.631416	931343.330070	6.924733e-01	97	none	NaN	NaN
 105	4	72	97	kitchen	sun_ajkqhtgcbgpcwrwn.tif	931344.099533	931344.358124	931345.056792	7.341886e-01	87	none	NaN	NaN
 105	4	73	65	kitchen	sun_aamedkxepzlwuxes.tif	931345.826244	931346.084833	931346.783520	7.592177e-01	55	37	931347.680487	0
 105	4	74	99	kitchen	sun_akcjzhbbjlbogpdi.tif	931348.453843	931348.712430	931349.411144	6.841303e-01	89	none	NaN	NaN
 105	4	75	94	kitchen	sun_ahywdevtimnqcsln.tif	931350.180554	931350.439143	931351.137652	7.842469e-01	84	none	NaN	NaN
 105	4	76	83	kitchen	sun_aeqdocilnnpuvuhx.tif	931351.907265	931352.165852	931352.864543	8.343052e-01	73	none	NaN	NaN
 105	4	77	86	kitchen	sun_aggjlwcdjsjcaemh.tif	931353.633968	931353.892563	931354.591207	6.674442e-01	76	none	NaN	NaN
 105	4	78	95	kitchen	sun_aixorpehvfykdynp.tif	931355.360679	931355.619270	931356.317974	7.592177e-01	85	none	NaN	NaN
 105	4	79	74	kitchen	sun_acfmftudsenhrfhy.tif	931357.087388	931357.345980	931358.044687	7.592177e-01	64	none	NaN	NaN
 105	4	80	77	kitchen	sun_acxkpeoqbwcxfvip.tif	931358.814102	931359.072688	931359.771188	7.759038e-01	67	none	NaN	NaN
 105	4	81	79	kitchen	sun_admlmbcdswaszruo.tif	931360.540811	931360.799396	931361.498100	7.925899e-01	69	none	NaN	NaN
 105	4	82	84	kitchen	sun_aexklacwqwezaorf.tif	931362.267519	931362.526106	931363.224771	8.509913e-01	74	none	NaN	NaN
 105	4	83	88	kitchen	sun_agubuxuukhzyzpdp.tif	931363.994227	931364.252812	931364.951374	7.925899e-01	78	none	NaN	NaN
 105	4	84	109	kitchen	sun_aypmqwcualkenuoe.tif	931365.720933	931365.979526	931366.678156	8.426483e-01	99	none	NaN	NaN
 105	4	85	63	kitchen	labelme_rykdqxenmhulbdn.tif	931367.447641	931367.706235	931368.404890	6.591011e-01	53	none	NaN	NaN
 105	4	86	101	kitchen	sun_aqeaevwwwjoqhzvl.tif	931369.174353	931369.432940	931370.131519	8.343052e-01	91	none	NaN	NaN
 105	4	87	93	kitchen	sun_ahspylgoovwmwvgk.tif	931370.901065	931371.159653	931371.858244	7.842469e-01	83	none	NaN	NaN
 105	4	88	81	kitchen	sun_aehawpgmrlhlvcow.tif	931372.627772	931372.886360	931373.585062	7.341886e-01	71	none	NaN	NaN
 105	4	89	90	kitchen	sun_ahdycvpopffkzzsu.tif	931374.354478	931374.613070	931375.311778	8.259621e-01	80	none	NaN	NaN
 105	4	90	98	kitchen	sun_akchetnepxlcxhsu.tif	931376.081190	931376.339778	931377.038428	7.759038e-01	88	none	NaN	NaN
 105	4	91	69	kitchen	sun_abdenxonkemggwsq.tif	931377.807895	931378.066485	931378.765051	6.924733e-01	59	none	NaN	NaN
 105	4	92	96	kitchen	sun_ajcbwwvdlsvjyzje.tif	931379.534607	931379.793193	931380.491744	6.841303e-01	86	none	NaN	NaN
 105	4	93	75	kitchen	sun_acgtpgfybqjmzeyw.tif	931381.261312	931381.519909	931382.218420	8.176191e-01	65	none	NaN	NaN
 105	4	94	76	kitchen	sun_acwjdupvyjsugpay.tif	931382.988027	931383.246615	931383.945324	7.175025e-01	66	none	NaN	NaN
 105	4	95	104	kitchen	sun_auticobqsbwgoppi.tif	931384.714737	931384.973319	931385.671894	8.009330e-01	94	none	NaN	NaN
 105	4	96	82	kitchen	sun_aenotlpyftoioydp.tif	931386.441445	931386.700030	931387.398721	7.842469e-01	72	none	NaN	NaN
 105	4	97	61	kitchen	labelme_brsyyvweiuaazfr.tif	931388.168150	931388.426744	931389.125317	7.008164e-01	51	none	NaN	NaN
 105	4	98	71	kitchen	sun_abftihopvusyfakt.tif	931389.894862	931390.153448	931390.852066	6.591011e-01	61	none	NaN	NaN
 105	4	99	67	kitchen	sun_aarfiyshqohlwkmo.tif	931391.621569	931391.880158	931392.578749	6.924733e-01	57	none	NaN	NaN
 105	4	100	100	kitchen	sun_amjjdeyrggfqgmom.tif	931393.348282	931393.606870	931394.305521	7.508747e-01	90	none	NaN	NaN
 105	5	1	47	bathroom	sun_apynckhmoftszqoq.tif	931417.889239	931418.147822	931418.854831	7.592177e-01	37	none	NaN	NaN
 105	5	2	55	bathroom	sun_avhrdrntsqrjzccq.tif	931419.624285	931419.882874	931420.589882	6.507581e-01	45	39	931422.064451	1
 105	5	3	45	bathroom	sun_apkxzenqapsujocq.tif	931422.835796	931423.094385	931423.801345	7.425316e-01	35	none	NaN	NaN
 105	5	4	41	bathroom	sun_aoybiabnpadelefl.tif	931424.570848	931424.829440	931425.536491	7.091594e-01	31	none	NaN	NaN
 105	5	5	21	bathroom	sun_aggnnqpdorgxpvce.tif	931426.305901	931426.564486	931427.271427	7.175025e-01	11	none	NaN	NaN
 105	5	6	36	bathroom	sun_ambriybtogmepttm.tif	931428.040948	931428.299539	931429.006426	8.509913e-01	26	none	NaN	NaN
 105	5	7	24	bathroom	sun_agrwbmhcpmfuwmsg.tif	931429.775997	931430.034592	931430.741542	6.757872e-01	14	none	NaN	NaN
 105	5	8	37	bathroom	sun_amzlamotzwfkwjco.tif	931431.511050	931431.769640	931432.476608	7.008164e-01	27	none	NaN	NaN
 105	5	9	20	bathroom	sun_afcoljnjfoxjtgja.tif	931433.246099	931433.504687	931434.211717	7.258455e-01	10	none	NaN	NaN
 105	5	10	40	bathroom	sun_aofnryafpsjimzsb.tif	931434.981153	931435.239743	931435.946640	7.508747e-01	30	none	NaN	NaN
 105	5	11	42	bathroom	sun_apeeialkgkuxddgh.tif	931436.716199	931436.974791	931437.681721	8.092760e-01	32	none	NaN	NaN
 105	5	12	13	bathroom	sun_aavhrsfjbserjtht.tif	931438.451254	931438.709843	931439.416849	8.176191e-01	3	none	NaN	NaN
 105	5	13	11	bathroom	labelme_sfxiulhjbhlyiyt.tif	931440.186301	931440.444896	931441.151872	7.258455e-01	1	none	NaN	NaN
 105	5	14	34	bathroom	sun_alkosphxlxwjwgjd.tif	931441.921358	931442.179942	931442.886963	6.591011e-01	24	39	931445.912390	0
 105	5	15	51	bathroom	sun_atstyziqcmkahyxk.tif	931446.684401	931446.942986	931447.649895	7.258455e-01	41	39	931449.288157	1
 105	5	16	32	bathroom	sun_aleqenyvunhactkl.tif	931450.062746	931450.321336	931451.028183	7.842469e-01	22	none	NaN	NaN
 105	5	17	26	bathroom	sun_ahaulkltgpkeeemi.tif	931451.797799	931452.056386	931452.763219	7.925899e-01	16	none	NaN	NaN
 105	5	18	33	bathroom	sun_aljolscmmzydegqp.tif	931453.532844	931453.791439	931454.498323	7.008164e-01	23	37	931455.464369	1
 105	5	19	28	bathroom	sun_ahijqszoswveeyji.tif	931456.235522	931456.494109	931457.201049	7.008164e-01	18	none	NaN	NaN
 105	5	20	19	bathroom	sun_aclfzgynxzxlbepz.tif	931457.970574	931458.229160	931458.936182	7.592177e-01	9	none	NaN	NaN
 105	5	21	35	bathroom	sun_alotolagknyrgtsk.tif	931459.705623	931459.964216	931460.671059	7.175025e-01	25	none	NaN	NaN
 105	5	22	58	bathroom	sun_axxbkopsgyouuebh.tif	931461.440672	931461.699266	931462.406253	8.509913e-01	48	none	NaN	NaN
 105	5	23	27	bathroom	sun_ahcvzmoyaycdoftf.tif	931463.175721	931463.434315	931464.141364	7.175025e-01	17	none	NaN	NaN
 105	5	24	23	bathroom	sun_aghyqhbptboemmoq.tif	931464.910775	931465.169365	931465.876228	8.092760e-01	13	none	NaN	NaN
 105	5	25	56	bathroom	sun_awnqiikzaispgmwo.tif	931466.645821	931466.904413	931467.611397	8.176191e-01	46	none	NaN	NaN
 105	5	26	15	bathroom	sun_abjtwfukuwddzted.tif	931468.380880	931468.639470	931469.346416	7.425316e-01	5	none	NaN	NaN
 105	5	27	48	bathroom	sun_aqrpegblszgcoujh.tif	931470.115926	931470.374506	931471.081468	8.426483e-01	38	none	NaN	NaN
 105	5	28	18	bathroom	sun_acgyywnybuveqsro.tif	931471.850977	931472.109568	931472.816416	8.176191e-01	8	none	NaN	NaN
 105	5	29	60	bathroom	sun_azqyogdvyhahyram.tif	931473.586028	931473.844620	931474.551518	8.009330e-01	50	none	NaN	NaN
 105	5	30	46	bathroom	sun_apmqjbnwghzuhhzh.tif	931475.321081	931475.579668	931476.286649	6.757872e-01	36	none	NaN	NaN
 105	5	31	30	bathroom	sun_ajlawzvmubibwbpy.tif	931477.056126	931477.314719	931478.021730	6.591011e-01	20	none	NaN	NaN
 105	5	32	31	bathroom	sun_akiytfaagpdsphgz.tif	931478.791179	931479.049768	931479.756819	8.426483e-01	21	none	NaN	NaN
 105	5	33	16	bathroom	sun_acduarbnmmoglmiv.tif	931480.526230	931480.784822	931481.491813	6.674442e-01	6	none	NaN	NaN
 105	5	34	29	bathroom	sun_ahqjwnzgolcaoidx.tif	931482.261278	931482.519871	931483.226776	7.091594e-01	19	39	931484.248398	1
 105	5	35	49	bathroom	sun_asfwthctfqerjvxr.tif	931485.022351	931485.280938	931485.987824	7.675608e-01	39	none	NaN	NaN
 105	5	36	43	bathroom	sun_apjevzvycyhuqghb.tif	931486.757397	931487.015992	931487.723023	8.009330e-01	33	none	NaN	NaN
 105	5	37	22	bathroom	sun_agguqiubmwhqqunb.tif	931488.492453	931488.751041	931489.457877	7.008164e-01	12	none	NaN	NaN
 105	5	38	17	bathroom	sun_acegryoqftbzowsg.tif	931490.227498	931490.486090	931491.193022	6.674442e-01	7	none	NaN	NaN
 105	5	39	44	bathroom	sun_apkruvsevgegsdwp.tif	931491.962552	931492.221145	931492.928040	7.759038e-01	34	39	931494.232299	1
 105	5	40	52	bathroom	sun_aunuadmjocsddsrl.tif	931495.007229	931495.265821	931495.972676	8.009330e-01	42	none	NaN	NaN
 105	5	41	59	bathroom	sun_axyrejkiiaqiurjk.tif	931496.742278	931497.000874	931497.707821	8.009330e-01	49	none	NaN	NaN
 105	5	42	53	bathroom	sun_ausgutylgojavyoq.tif	931498.477332	931498.735918	931499.442819	7.091594e-01	43	none	NaN	NaN
 105	5	43	12	bathroom	sun_aapitsgbtktqubfy.tif	931500.212384	931500.470967	931501.177868	6.591011e-01	2	none	NaN	NaN
 105	5	44	25	bathroom	sun_agyqfjcfkdcydepw.tif	931501.947426	931502.206026	931502.912927	7.675608e-01	15	none	NaN	NaN
 105	5	45	14	bathroom	sun_abapwbhyhkfixyex.tif	931503.682481	931503.941070	931504.647938	7.592177e-01	4	none	NaN	NaN
 105	5	46	54	bathroom	sun_auzqhkafidnkrwmo.tif	931505.417529	931505.676122	931506.383109	8.092760e-01	44	none	NaN	NaN
 105	5	47	39	bathroom	sun_anryaplzeujmzfkd.tif	931507.152585	931507.411174	931508.118104	7.842469e-01	29	none	NaN	NaN
 105	5	48	38	bathroom	sun_anhioqovhscjqqwb.tif	931508.887635	931509.146222	931509.853229	6.757872e-01	28	none	NaN	NaN
 105	5	49	57	bathroom	sun_axldvoqbuvuggfmq.tif	931510.622685	931510.881276	931511.588273	7.759038e-01	47	none	NaN	NaN
 105	5	50	50	bathroom	sun_aspsyogrekjtfozg.tif	931512.357733	931512.616327	931513.323322	8.092760e-01	40	none	NaN	NaN
 105	5	51	50	bathroom	sun_aspsyogrekjtfozg.tif	931514.092784	931514.351379	931515.058426	7.675608e-01	40	none	NaN	NaN
 105	5	52	58	bathroom	sun_axxbkopsgyouuebh.tif	931515.827836	931516.086425	931516.793311	8.259621e-01	48	none	NaN	NaN
 105	5	53	13	bathroom	sun_aavhrsfjbserjtht.tif	931517.562890	931517.821477	931518.528484	8.259621e-01	3	none	NaN	NaN
 105	5	54	28	bathroom	sun_ahijqszoswveeyji.tif	931519.297942	931519.556529	931520.263565	7.425316e-01	18	none	NaN	NaN
 105	5	55	31	bathroom	sun_akiytfaagpdsphgz.tif	931521.032986	931521.291579	931521.998618	7.592177e-01	21	none	NaN	NaN
 105	5	56	14	bathroom	sun_abapwbhyhkfixyex.tif	931522.768041	931523.026625	931523.733560	8.343052e-01	4	none	NaN	NaN
 105	5	57	26	bathroom	sun_ahaulkltgpkeeemi.tif	931524.503093	931524.761678	931525.468586	7.341886e-01	16	none	NaN	NaN
 105	5	58	45	bathroom	sun_apkxzenqapsujocq.tif	931526.238143	931526.496728	931527.203742	8.176191e-01	35	none	NaN	NaN
 105	5	59	52	bathroom	sun_aunuadmjocsddsrl.tif	931527.973191	931528.231780	931528.938649	7.842469e-01	42	none	NaN	NaN
 105	5	60	15	bathroom	sun_abjtwfukuwddzted.tif	931529.708243	931529.966831	931530.673705	8.426483e-01	5	none	NaN	NaN
 105	5	61	42	bathroom	sun_apeeialkgkuxddgh.tif	931531.443292	931531.701882	931532.408719	8.343052e-01	32	none	NaN	NaN
 105	5	62	32	bathroom	sun_aleqenyvunhactkl.tif	931533.178343	931533.436937	931534.143886	8.343052e-01	22	none	NaN	NaN
 105	5	63	34	bathroom	sun_alkosphxlxwjwgjd.tif	931534.913397	931535.171986	931535.878922	7.759038e-01	24	none	NaN	NaN
 105	5	64	16	bathroom	sun_acduarbnmmoglmiv.tif	931536.648444	931536.907036	931537.613989	8.259621e-01	6	none	NaN	NaN
 105	5	65	44	bathroom	sun_apkruvsevgegsdwp.tif	931538.383496	931538.642087	931539.348937	7.592177e-01	34	none	NaN	NaN
 105	5	66	36	bathroom	sun_ambriybtogmepttm.tif	931540.118541	931540.377137	931541.084167	7.508747e-01	26	none	NaN	NaN
 105	5	67	27	bathroom	sun_ahcvzmoyaycdoftf.tif	931541.853600	931542.112189	931542.819236	6.841303e-01	17	none	NaN	NaN
 105	5	68	33	bathroom	sun_aljolscmmzydegqp.tif	931543.588647	931543.847240	931544.554209	8.176191e-01	23	39	931545.840448	1
 105	5	69	49	bathroom	sun_asfwthctfqerjvxr.tif	931546.616645	931546.875234	931547.582145	6.924733e-01	39	none	NaN	NaN
 105	5	70	46	bathroom	sun_apmqjbnwghzuhhzh.tif	931548.351693	931548.610282	931549.317213	6.591011e-01	36	39	931550.792268	1
 105	5	71	60	bathroom	sun_azqyogdvyhahyram.tif	931551.563208	931551.821798	931552.528683	6.924733e-01	50	37	931553.504259	1
 105	5	72	56	bathroom	sun_awnqiikzaispgmwo.tif	931554.282562	931554.541148	931555.248023	8.343052e-01	46	none	NaN	NaN
 105	5	73	53	bathroom	sun_ausgutylgojavyoq.tif	931556.017620	931556.276206	931556.983040	7.925899e-01	43	none	NaN	NaN
 105	5	74	12	bathroom	sun_aapitsgbtktqubfy.tif	931557.752669	931558.011256	931558.718309	7.925899e-01	2	none	NaN	NaN
 105	5	75	38	bathroom	sun_anhioqovhscjqqwb.tif	931559.487715	931559.746308	931560.453238	6.924733e-01	28	none	NaN	NaN
 105	5	76	47	bathroom	sun_apynckhmoftszqoq.tif	931561.222769	931561.481357	931562.188204	6.924733e-01	37	none	NaN	NaN
 105	5	77	55	bathroom	sun_avhrdrntsqrjzccq.tif	931562.957817	931563.216404	931563.923334	6.841303e-01	45	none	NaN	NaN
 105	5	78	29	bathroom	sun_ahqjwnzgolcaoidx.tif	931564.692868	931564.951462	931565.658327	8.426483e-01	19	none	NaN	NaN
 105	5	79	20	bathroom	sun_afcoljnjfoxjtgja.tif	931566.427920	931566.686510	931567.393529	7.842469e-01	10	37	931568.296332	1
 105	5	80	59	bathroom	sun_axyrejkiiaqiurjk.tif	931569.072201	931569.330795	931570.037622	6.507581e-01	49	none	NaN	NaN
 105	5	81	39	bathroom	sun_anryaplzeujmzfkd.tif	931570.807254	931571.065841	931571.772892	7.258455e-01	29	none	NaN	NaN
 105	5	82	18	bathroom	sun_acgyywnybuveqsro.tif	931572.542309	931572.800895	931573.507870	7.341886e-01	8	none	NaN	NaN
 105	5	83	21	bathroom	sun_aggnnqpdorgxpvce.tif	931574.277354	931574.535943	931575.242927	7.091594e-01	11	none	NaN	NaN
 105	5	84	37	bathroom	sun_amzlamotzwfkwjco.tif	931576.012405	931576.270994	931576.977896	7.175025e-01	27	39	931578.016256	1
 105	5	85	11	bathroom	labelme_sfxiulhjbhlyiyt.tif	931578.790155	931579.048742	931579.755770	7.341886e-01	1	37	931580.728025	1
 105	5	86	35	bathroom	sun_alotolagknyrgtsk.tif	931581.501169	931581.759761	931582.466696	7.508747e-01	25	37	931583.176322	1
 105	5	87	30	bathroom	sun_ajlawzvmubibwbpy.tif	931583.953598	931584.212193	931584.919037	7.675608e-01	20	none	NaN	NaN
 105	5	88	57	bathroom	sun_axldvoqbuvuggfmq.tif	931585.688648	931585.947239	931586.654197	6.841303e-01	47	none	NaN	NaN
 105	5	89	22	bathroom	sun_agguqiubmwhqqunb.tif	931587.423700	931587.682287	931588.389184	6.757872e-01	12	none	NaN	NaN
 105	5	90	19	bathroom	sun_aclfzgynxzxlbepz.tif	931589.158751	931589.417337	931590.124274	7.341886e-01	9	none	NaN	NaN
 105	5	91	25	bathroom	sun_agyqfjcfkdcydepw.tif	931590.893804	931591.152392	931591.859322	6.674442e-01	15	37	931593.104080	1
 105	5	92	43	bathroom	sun_apjevzvycyhuqghb.tif	931593.880091	931594.138681	931594.845612	6.674442e-01	33	none	NaN	NaN
 105	5	93	54	bathroom	sun_auzqhkafidnkrwmo.tif	931595.615141	931595.873729	931596.580770	7.759038e-01	44	none	NaN	NaN
 105	5	94	51	bathroom	sun_atstyziqcmkahyxk.tif	931597.350196	931597.608780	931598.315721	7.425316e-01	41	none	NaN	NaN
 105	5	95	24	bathroom	sun_agrwbmhcpmfuwmsg.tif	931599.085241	931599.343829	931600.050822	6.841303e-01	14	none	NaN	NaN
 105	5	96	23	bathroom	sun_aghyqhbptboemmoq.tif	931600.820293	931601.078883	931601.785786	6.924733e-01	13	37	931602.800246	0
 105	5	97	40	bathroom	sun_aofnryafpsjimzsb.tif	931603.573019	931603.831608	931604.538614	6.507581e-01	30	none	NaN	NaN
 105	5	98	41	bathroom	sun_aoybiabnpadelefl.tif	931605.308067	931605.566658	931606.273564	7.508747e-01	31	none	NaN	NaN
 105	5	99	48	bathroom	sun_aqrpegblszgcoujh.tif	931607.043116	931607.301706	931608.008639	7.925899e-01	38	none	NaN	NaN
 105	5	100	17	bathroom	sun_acegryoqftbzowsg.tif	931608.778172	931609.036760	931609.743678	8.259621e-01	7	none	NaN	NaN
 105	6	1	64	kitchen	sun_aadbddgrdsjugojn.tif	931618.187481	931618.446072	931619.186424	8.426483e-01	54	none	NaN	NaN
 105	6	2	81	kitchen	sun_aehawpgmrlhlvcow.tif	931619.955899	931620.214486	931620.954740	7.091594e-01	71	none	NaN	NaN
 105	6	3	108	kitchen	sun_aymvwlarqodbwuoc.tif	931621.724314	931621.982908	931622.723199	6.841303e-01	98	none	NaN	NaN
 105	6	4	65	kitchen	sun_aamedkxepzlwuxes.tif	931623.492735	931623.751321	931624.491721	8.259621e-01	55	none	NaN	NaN
 105	6	5	87	kitchen	sun_agorklincwxrdtga.tif	931625.261152	931625.519735	931626.260075	8.176191e-01	77	none	NaN	NaN
 105	6	6	90	kitchen	sun_ahdycvpopffkzzsu.tif	931627.029567	931627.288158	931628.028530	7.508747e-01	80	none	NaN	NaN
 105	6	7	99	kitchen	sun_akcjzhbbjlbogpdi.tif	931628.797987	931629.056577	931629.796827	7.675608e-01	89	39	931630.728133	1
 105	6	8	93	kitchen	sun_ahspylgoovwmwvgk.tif	931631.500657	931631.759253	931632.499596	7.008164e-01	83	none	NaN	NaN
 105	6	9	62	kitchen	labelme_kxvouciolcpqplr.tif	931633.269078	931633.527665	931634.267921	6.674442e-01	52	none	NaN	NaN
 105	6	10	69	kitchen	sun_abdenxonkemggwsq.tif	931635.037492	931635.296082	931636.036310	6.841303e-01	59	none	NaN	NaN
 105	6	11	98	kitchen	sun_akchetnepxlcxhsu.tif	931636.805914	931637.064497	931637.804739	7.842469e-01	88	none	NaN	NaN
 105	6	12	106	kitchen	sun_awcpdzzznmweyyhv.tif	931638.574327	931638.832921	931639.573263	7.925899e-01	96	none	NaN	NaN
 105	6	13	109	kitchen	sun_aypmqwcualkenuoe.tif	931640.342748	931640.601333	931641.341590	6.924733e-01	99	none	NaN	NaN
 105	6	14	100	kitchen	sun_amjjdeyrggfqgmom.tif	931642.111162	931642.369753	931643.110113	7.175025e-01	90	none	NaN	NaN
 105	6	15	89	kitchen	sun_agzzivivdpnawacl.tif	931643.879544	931644.138169	931644.878417	8.259621e-01	79	none	NaN	NaN
 105	6	16	103	kitchen	sun_aunzlwrbjumxhwdj.tif	931645.647997	931645.906584	931646.646907	6.924733e-01	93	none	NaN	NaN
 105	6	17	78	kitchen	sun_adgqasybjyktddhj.tif	931647.416413	931647.675001	931648.415287	8.343052e-01	68	none	NaN	NaN
 105	6	18	68	kitchen	sun_aaxxjlsuzvqlgylf.tif	931649.184832	931649.443418	931650.183701	8.259621e-01	58	none	NaN	NaN
 105	6	19	71	kitchen	sun_abftihopvusyfakt.tif	931650.953244	931651.211838	931651.952086	7.091594e-01	61	none	NaN	NaN
 105	6	20	105	kitchen	sun_avszsnwsbuqfgzbn.tif	931652.721666	931652.980254	931653.720488	6.507581e-01	95	37	931654.984124	0
 105	6	21	73	kitchen	sun_abrcnpqqhmjwekyf.tif	931655.758000	931656.016589	931656.756979	7.592177e-01	63	none	NaN	NaN
 105	6	22	67	kitchen	sun_aarfiyshqohlwkmo.tif	931657.526422	931657.785007	931658.525397	7.759038e-01	57	none	NaN	NaN
 105	6	23	86	kitchen	sun_aggjlwcdjsjcaemh.tif	931659.294835	931659.553426	931660.293840	8.009330e-01	76	none	NaN	NaN
 105	6	24	74	kitchen	sun_acfmftudsenhrfhy.tif	931661.063254	931661.321846	931662.062250	6.591011e-01	64	none	NaN	NaN
 105	6	25	66	kitchen	sun_aapllqyqlykszopd.tif	931662.831667	931663.090258	931663.830649	7.175025e-01	56	none	NaN	NaN
 105	6	26	95	kitchen	sun_aixorpehvfykdynp.tif	931664.600086	931664.858676	931665.598959	7.592177e-01	85	none	NaN	NaN
 105	6	27	70	kitchen	sun_abdxkyyxwfskuaqb.tif	931666.368509	931666.627095	931667.367405	8.343052e-01	60	39	931668.472114	1
 105	6	28	75	kitchen	sun_acgtpgfybqjmzeyw.tif	931669.246353	931669.504941	931670.245434	8.426483e-01	65	none	NaN	NaN
 105	6	29	94	kitchen	sun_ahywdevtimnqcsln.tif	931671.014766	931671.273355	931672.013719	7.425316e-01	84	none	NaN	NaN
 105	6	30	85	kitchen	sun_afuyedyxivkhecmu.tif	931672.783190	931673.041775	931673.782052	7.842469e-01	75	none	NaN	NaN
 105	6	31	107	kitchen	sun_axyyrmzcupyhlivc.tif	931674.551607	931674.810190	931675.550438	8.176191e-01	97	none	NaN	NaN
 105	6	32	91	kitchen	sun_ahljzhgcdpomplvg.tif	931676.320018	931676.578607	931677.318922	7.258455e-01	81	none	NaN	NaN
 105	6	33	96	kitchen	sun_ajcbwwvdlsvjyzje.tif	931678.088433	931678.347027	931679.087351	7.759038e-01	86	39	931680.592237	1
 105	6	34	82	kitchen	sun_aenotlpyftoioydp.tif	931681.366681	931681.625274	931682.365600	7.592177e-01	72	37	931684.680113	1
 105	6	35	102	kitchen	sun_auaiucuqpdausiva.tif	931685.454062	931685.712648	931686.452890	8.009330e-01	92	37	931687.464231	1
 105	6	36	72	kitchen	sun_abpwyqmlzafvklqo.tif	931688.240152	931688.498738	931689.238997	7.258455e-01	62	none	NaN	NaN
 105	6	37	84	kitchen	sun_aexklacwqwezaorf.tif	931690.008570	931690.267158	931691.007405	7.675608e-01	74	39	931691.848328	1
 105	6	38	101	kitchen	sun_aqeaevwwwjoqhzvl.tif	931692.619478	931692.878077	931693.618417	7.675608e-01	91	none	NaN	NaN
 105	6	39	110	kitchen	sun_azmutvzbxypaceni.tif	931694.387903	931694.646492	931695.386913	6.591011e-01	100	none	NaN	NaN
 105	6	40	83	kitchen	sun_aeqdocilnnpuvuhx.tif	931696.156323	931696.414911	931697.155173	8.009330e-01	73	none	NaN	NaN
 105	6	41	77	kitchen	sun_acxkpeoqbwcxfvip.tif	931697.924734	931698.183330	931698.923720	8.176191e-01	67	none	NaN	NaN
 105	6	42	63	kitchen	labelme_rykdqxenmhulbdn.tif	931699.693152	931699.951741	931700.692103	6.507581e-01	53	none	NaN	NaN
 105	6	43	80	kitchen	sun_aegoxogugdkwpmpj.tif	931701.461571	931701.720158	931702.460532	7.091594e-01	70	none	NaN	NaN
 105	6	44	79	kitchen	sun_admlmbcdswaszruo.tif	931703.229987	931703.488578	931704.229001	7.925899e-01	69	37	931705.417011	1
 105	6	45	61	kitchen	labelme_brsyyvweiuaazfr.tif	931706.191254	931706.449841	931707.190067	7.008164e-01	51	none	NaN	NaN
 105	6	46	97	kitchen	sun_ajkqhtgcbgpcwrwn.tif	931707.959644	931708.218263	931708.958503	7.091594e-01	87	none	NaN	NaN
 105	6	47	88	kitchen	sun_agubuxuukhzyzpdp.tif	931709.728087	931709.986676	931710.727048	7.341886e-01	78	none	NaN	NaN
 105	6	48	104	kitchen	sun_auticobqsbwgoppi.tif	931711.496504	931711.755097	931712.495515	7.759038e-01	94	none	NaN	NaN
 105	6	49	76	kitchen	sun_acwjdupvyjsugpay.tif	931713.264919	931713.523511	931714.263810	7.592177e-01	66	none	NaN	NaN
 105	6	50	92	kitchen	sun_ahpczsiumwwocjkv.tif	931715.033342	931715.291927	931716.032340	7.175025e-01	82	none	NaN	NaN
 105	6	51	105	kitchen	sun_avszsnwsbuqfgzbn.tif	931716.801752	931717.060344	931717.800552	8.259621e-01	95	none	NaN	NaN
 105	6	52	92	kitchen	sun_ahpczsiumwwocjkv.tif	931718.570165	931718.828761	931719.569118	8.343052e-01	82	none	NaN	NaN
 105	6	53	83	kitchen	sun_aeqdocilnnpuvuhx.tif	931720.338590	931720.597176	931721.337521	7.341886e-01	73	none	NaN	NaN
 105	6	54	94	kitchen	sun_ahywdevtimnqcsln.tif	931722.107009	931722.365595	931723.106006	8.092760e-01	84	none	NaN	NaN
 105	6	55	101	kitchen	sun_aqeaevwwwjoqhzvl.tif	931723.875423	931724.134009	931724.874278	7.008164e-01	91	none	NaN	NaN
 105	6	56	81	kitchen	sun_aehawpgmrlhlvcow.tif	931725.643839	931725.902428	931726.642847	6.841303e-01	71	none	NaN	NaN
 105	6	57	87	kitchen	sun_agorklincwxrdtga.tif	931727.412259	931727.670848	931728.411100	8.092760e-01	77	none	NaN	NaN
 105	6	58	89	kitchen	sun_agzzivivdpnawacl.tif	931729.180673	931729.439265	931730.179577	7.258455e-01	79	none	NaN	NaN
 105	6	59	74	kitchen	sun_acfmftudsenhrfhy.tif	931730.949089	931731.207678	931731.947887	8.009330e-01	64	none	NaN	NaN
 105	6	60	67	kitchen	sun_aarfiyshqohlwkmo.tif	931732.717506	931732.976093	931733.716407	6.924733e-01	57	none	NaN	NaN
 105	6	61	63	kitchen	labelme_rykdqxenmhulbdn.tif	931734.485925	931734.744513	931735.484721	6.674442e-01	53	none	NaN	NaN
 105	6	62	84	kitchen	sun_aexklacwqwezaorf.tif	931736.254346	931736.512931	931737.253229	6.591011e-01	74	none	NaN	NaN
 105	6	63	103	kitchen	sun_aunzlwrbjumxhwdj.tif	931738.022734	931738.281348	931739.021720	6.924733e-01	93	37	931739.936081	1
 105	6	64	91	kitchen	sun_ahljzhgcdpomplvg.tif	931740.708750	931740.967339	931741.707713	6.924733e-01	81	none	NaN	NaN
 105	6	65	62	kitchen	labelme_kxvouciolcpqplr.tif	931742.477168	931742.735752	931743.476003	7.425316e-01	52	37	931745.528321	0
 105	6	66	106	kitchen	sun_awcpdzzznmweyyhv.tif	931746.305958	931746.564542	931747.304891	6.674442e-01	96	none	NaN	NaN
 105	6	67	68	kitchen	sun_aaxxjlsuzvqlgylf.tif	931748.074377	931748.332969	931749.073201	7.508747e-01	58	none	NaN	NaN
 105	6	68	65	kitchen	sun_aamedkxepzlwuxes.tif	931749.842795	931750.101381	931750.841661	7.341886e-01	55	none	NaN	NaN
 105	6	69	96	kitchen	sun_ajcbwwvdlsvjyzje.tif	931751.611207	931751.869799	931752.610038	7.008164e-01	86	none	NaN	NaN
 105	6	70	110	kitchen	sun_azmutvzbxypaceni.tif	931753.379626	931753.638213	931754.378483	8.426483e-01	100	none	NaN	NaN
 105	6	71	77	kitchen	sun_acxkpeoqbwcxfvip.tif	931755.148041	931755.406632	931756.147009	8.509913e-01	67	39	931757.464347	1
 105	6	72	86	kitchen	sun_aggjlwcdjsjcaemh.tif	931758.242771	931758.501362	931759.241719	7.925899e-01	76	none	NaN	NaN
 105	6	73	64	kitchen	sun_aadbddgrdsjugojn.tif	931760.011189	931760.269775	931761.010058	6.757872e-01	54	none	NaN	NaN
 105	6	74	76	kitchen	sun_acwjdupvyjsugpay.tif	931761.779604	931762.038191	931762.778515	8.176191e-01	66	none	NaN	NaN
 105	6	75	104	kitchen	sun_auticobqsbwgoppi.tif	931763.548026	931763.806606	931764.546941	8.509913e-01	94	none	NaN	NaN
 105	6	76	95	kitchen	sun_aixorpehvfykdynp.tif	931765.316441	931765.575028	931766.315244	7.508747e-01	85	none	NaN	NaN
 105	6	77	109	kitchen	sun_aypmqwcualkenuoe.tif	931767.084851	931767.343441	931768.083725	8.343052e-01	99	none	NaN	NaN
 105	6	78	108	kitchen	sun_aymvwlarqodbwuoc.tif	931768.853273	931769.111865	931769.852152	6.757872e-01	98	37	931770.816014	1
 105	6	79	100	kitchen	sun_amjjdeyrggfqgmom.tif	931771.589314	931771.847904	931772.588332	7.592177e-01	90	none	NaN	NaN
 105	6	80	99	kitchen	sun_akcjzhbbjlbogpdi.tif	931773.357731	931773.616318	931774.356596	6.591011e-01	89	none	NaN	NaN
 105	6	81	70	kitchen	sun_abdxkyyxwfskuaqb.tif	931775.126148	931775.384736	931776.125149	7.175025e-01	60	none	NaN	NaN
 105	6	82	75	kitchen	sun_acgtpgfybqjmzeyw.tif	931776.894566	931777.153159	931777.893370	6.674442e-01	65	37	931778.840144	1
 105	6	83	90	kitchen	sun_ahdycvpopffkzzsu.tif	931779.613921	931779.872511	931780.612902	6.757872e-01	80	none	NaN	NaN
 105	6	84	97	kitchen	sun_ajkqhtgcbgpcwrwn.tif	931781.382341	931781.640930	931782.381232	6.841303e-01	87	none	NaN	NaN
 105	6	85	88	kitchen	sun_agubuxuukhzyzpdp.tif	931783.150763	931783.409349	931784.149593	6.507581e-01	78	none	NaN	NaN
 105	6	86	80	kitchen	sun_aegoxogugdkwpmpj.tif	931784.919175	931785.177765	931785.918057	8.092760e-01	70	none	NaN	NaN
 105	6	87	82	kitchen	sun_aenotlpyftoioydp.tif	931786.687593	931786.946182	931787.686390	7.258455e-01	72	none	NaN	NaN
 105	6	88	102	kitchen	sun_auaiucuqpdausiva.tif	931788.456011	931788.714599	931789.454993	7.925899e-01	92	39	931790.384154	1
 105	6	89	66	kitchen	sun_aapllqyqlykszopd.tif	931791.158684	931791.417272	931792.157491	7.842469e-01	56	none	NaN	NaN
 105	6	90	78	kitchen	sun_adgqasybjyktddhj.tif	931792.927097	931793.185691	931793.926285	8.092760e-01	68	none	NaN	NaN
 105	6	91	61	kitchen	labelme_brsyyvweiuaazfr.tif	931794.695517	931794.954111	931795.694448	8.176191e-01	51	none	NaN	NaN
 105	6	92	79	kitchen	sun_admlmbcdswaszruo.tif	931796.463928	931796.722526	931797.462908	8.426483e-01	69	37	931798.704196	1
 105	6	93	73	kitchen	sun_abrcnpqqhmjwekyf.tif	931799.475244	931799.733839	931800.474047	7.675608e-01	63	none	NaN	NaN
 105	6	94	69	kitchen	sun_abdenxonkemggwsq.tif	931801.243665	931801.502252	931802.242482	6.757872e-01	59	none	NaN	NaN
 105	6	95	98	kitchen	sun_akchetnepxlcxhsu.tif	931803.012084	931803.270674	931804.010932	7.759038e-01	88	none	NaN	NaN
 105	6	96	107	kitchen	sun_axyyrmzcupyhlivc.tif	931804.780498	931805.039093	931805.779422	7.842469e-01	97	none	NaN	NaN
 105	6	97	71	kitchen	sun_abftihopvusyfakt.tif	931806.548913	931806.807506	931807.547818	7.508747e-01	61	none	NaN	NaN
 105	6	98	85	kitchen	sun_afuyedyxivkhecmu.tif	931808.317331	931808.575923	931809.316333	7.341886e-01	75	none	NaN	NaN
 105	6	99	93	kitchen	sun_ahspylgoovwmwvgk.tif	931810.085753	931810.344340	931811.084630	7.425316e-01	83	none	NaN	NaN
 105	6	100	72	kitchen	sun_abpwyqmlzafvklqo.tif	931811.854169	931812.112759	931812.853053	7.425316e-01	62	none	NaN	NaN
 105	7	1	30	bathroom	sun_ajlawzvmubibwbpy.tif	931830.956409	931831.214998	931831.905152	6.674442e-01	20	37	931832.856198	1
 105	7	2	24	bathroom	sun_agrwbmhcpmfuwmsg.tif	931833.634058	931833.892647	931834.582924	7.425316e-01	14	none	NaN	NaN
 105	7	3	18	bathroom	sun_acgyywnybuveqsro.tif	931835.352425	931835.611016	931836.301242	7.675608e-01	8	none	NaN	NaN
 105	7	4	11	bathroom	labelme_sfxiulhjbhlyiyt.tif	931837.070795	931837.329381	931838.019788	7.508747e-01	1	none	NaN	NaN
 105	7	5	36	bathroom	sun_ambriybtogmepttm.tif	931838.789160	931839.047747	931839.737962	7.842469e-01	26	none	NaN	NaN
 105	7	6	59	bathroom	sun_axyrejkiiaqiurjk.tif	931840.507530	931840.766119	931841.456474	8.009330e-01	49	39	931843.176073	1
 105	7	7	41	bathroom	sun_aoybiabnpadelefl.tif	931843.952605	931844.211191	931844.901518	7.008164e-01	31	none	NaN	NaN
 105	7	8	27	bathroom	sun_ahcvzmoyaycdoftf.tif	931845.670970	931845.929562	931846.619729	7.341886e-01	17	none	NaN	NaN
 105	7	9	33	bathroom	sun_aljolscmmzydegqp.tif	931847.389340	931847.647931	931848.338120	7.425316e-01	23	none	NaN	NaN
 105	7	10	19	bathroom	sun_aclfzgynxzxlbepz.tif	931849.107708	931849.366294	931850.056642	6.757872e-01	9	none	NaN	NaN
 105	7	11	50	bathroom	sun_aspsyogrekjtfozg.tif	931850.826076	931851.084660	931851.774971	7.508747e-01	40	none	NaN	NaN
 105	7	12	25	bathroom	sun_agyqfjcfkdcydepw.tif	931852.544443	931852.803037	931853.493333	6.507581e-01	15	37	931854.424119	1
 105	7	13	48	bathroom	sun_aqrpegblszgcoujh.tif	931855.197068	931855.455658	931856.145917	8.009330e-01	38	none	NaN	NaN
 105	7	14	52	bathroom	sun_aunuadmjocsddsrl.tif	931856.915434	931857.174018	931857.864337	8.343052e-01	42	none	NaN	NaN
 105	7	15	45	bathroom	sun_apkxzenqapsujocq.tif	931858.633806	931858.892388	931859.582724	7.925899e-01	35	none	NaN	NaN
 105	7	16	54	bathroom	sun_auzqhkafidnkrwmo.tif	931860.352170	931860.610754	931861.301127	6.841303e-01	44	none	NaN	NaN
 105	7	17	43	bathroom	sun_apjevzvycyhuqghb.tif	931862.070537	931862.329125	931863.019489	6.924733e-01	33	37	931863.999836	1
 105	7	18	23	bathroom	sun_aghyqhbptboemmoq.tif	931864.773209	931865.031799	931865.722056	7.592177e-01	13	none	NaN	NaN
 105	7	19	57	bathroom	sun_axldvoqbuvuggfmq.tif	931866.491575	931866.750169	931867.440486	7.508747e-01	47	none	NaN	NaN
 105	7	20	13	bathroom	sun_aavhrsfjbserjtht.tif	931868.209947	931868.468531	931869.158788	8.176191e-01	3	none	NaN	NaN
 105	7	21	28	bathroom	sun_ahijqszoswveeyji.tif	931869.928314	931870.186903	931870.877163	7.341886e-01	18	39	931871.920146	1
 105	7	22	51	bathroom	sun_atstyziqcmkahyxk.tif	931872.697722	931872.956311	931873.646547	7.258455e-01	41	none	NaN	NaN
 105	7	23	55	bathroom	sun_avhrdrntsqrjzccq.tif	931874.416090	931874.674682	931875.364948	7.091594e-01	45	none	NaN	NaN
 105	7	24	40	bathroom	sun_aofnryafpsjimzsb.tif	931876.134451	931876.393048	931877.083351	6.924733e-01	30	none	NaN	NaN
 105	7	25	44	bathroom	sun_apkruvsevgegsdwp.tif	931877.852823	931878.111409	931878.801601	8.092760e-01	34	none	NaN	NaN
 105	7	26	42	bathroom	sun_apeeialkgkuxddgh.tif	931879.571192	931879.829782	931880.520049	8.176191e-01	32	none	NaN	NaN
 105	7	27	20	bathroom	sun_afcoljnjfoxjtgja.tif	931881.289556	931881.548144	931882.238376	7.175025e-01	10	none	NaN	NaN
 105	7	28	17	bathroom	sun_acegryoqftbzowsg.tif	931883.007929	931883.266519	931883.956796	8.259621e-01	7	none	NaN	NaN
 105	7	29	37	bathroom	sun_amzlamotzwfkwjco.tif	931884.726296	931884.984881	931885.675092	6.924733e-01	27	none	NaN	NaN
 105	7	30	16	bathroom	sun_acduarbnmmoglmiv.tif	931886.444660	931886.703249	931887.393562	6.841303e-01	6	none	NaN	NaN
 105	7	31	34	bathroom	sun_alkosphxlxwjwgjd.tif	931888.163025	931888.421620	931889.111881	8.343052e-01	24	none	NaN	NaN
 105	7	32	49	bathroom	sun_asfwthctfqerjvxr.tif	931889.881394	931890.139985	931890.830267	7.675608e-01	39	none	NaN	NaN
 105	7	33	31	bathroom	sun_akiytfaagpdsphgz.tif	931891.599762	931891.858352	931892.548634	7.925899e-01	21	none	NaN	NaN
 105	7	34	53	bathroom	sun_ausgutylgojavyoq.tif	931893.318131	931893.576719	931894.266901	7.091594e-01	43	39	931895.376087	1
 105	7	35	39	bathroom	sun_anryaplzeujmzfkd.tif	931896.154269	931896.412860	931897.103138	8.426483e-01	29	none	NaN	NaN
 105	7	36	21	bathroom	sun_aggnnqpdorgxpvce.tif	931897.872639	931898.131226	931898.821506	7.925899e-01	11	39	931899.975788	1
 105	7	37	56	bathroom	sun_awnqiikzaispgmwo.tif	931900.750485	931901.009075	931901.699367	7.341886e-01	46	none	NaN	NaN
 105	7	38	14	bathroom	sun_abapwbhyhkfixyex.tif	931902.468857	931902.727444	931903.417757	8.176191e-01	4	none	NaN	NaN
 105	7	39	60	bathroom	sun_azqyogdvyhahyram.tif	931904.187223	931904.445811	931905.136147	7.592177e-01	50	none	NaN	NaN
 105	7	40	38	bathroom	sun_anhioqovhscjqqwb.tif	931905.905588	931906.164176	931906.854354	8.176191e-01	28	none	NaN	NaN
 105	7	41	47	bathroom	sun_apynckhmoftszqoq.tif	931907.623954	931907.882545	931908.572781	6.507581e-01	37	none	NaN	NaN
 105	7	42	12	bathroom	sun_aapitsgbtktqubfy.tif	931909.342322	931909.600914	931910.291144	8.009330e-01	2	none	NaN	NaN
 105	7	43	22	bathroom	sun_agguqiubmwhqqunb.tif	931911.060692	931911.319280	931912.010922	7.425316e-01	12	37	931913.896095	1
 105	7	44	46	bathroom	sun_apmqjbnwghzuhhzh.tif	931914.672597	931914.931191	931915.621549	8.343052e-01	36	none	NaN	NaN
 105	7	45	58	bathroom	sun_axxbkopsgyouuebh.tif	931916.390964	931916.649555	931917.339823	8.259621e-01	48	none	NaN	NaN
 105	7	46	35	bathroom	sun_alotolagknyrgtsk.tif	931918.109331	931918.367924	931919.058116	8.426483e-01	25	none	NaN	NaN
 105	7	47	26	bathroom	sun_ahaulkltgpkeeemi.tif	931919.827698	931920.086289	931920.776578	8.092760e-01	16	none	NaN	NaN
 105	7	48	29	bathroom	sun_ahqjwnzgolcaoidx.tif	931921.546067	931921.804659	931922.494880	6.674442e-01	19	none	NaN	NaN
 105	7	49	32	bathroom	sun_aleqenyvunhactkl.tif	931923.264433	931923.523006	931924.213337	7.592177e-01	22	none	NaN	NaN
 105	7	50	15	bathroom	sun_abjtwfukuwddzted.tif	931924.982799	931925.241394	931925.931746	6.591011e-01	5	none	NaN	NaN
 105	7	51	16	bathroom	sun_acduarbnmmoglmiv.tif	931926.701172	931926.959760	931927.649929	7.175025e-01	6	none	NaN	NaN
 105	7	52	53	bathroom	sun_ausgutylgojavyoq.tif	931928.419539	931928.678127	931929.368476	8.343052e-01	43	none	NaN	NaN
 105	7	53	23	bathroom	sun_aghyqhbptboemmoq.tif	931930.137907	931930.396497	931931.086826	7.759038e-01	13	none	NaN	NaN
 105	7	54	17	bathroom	sun_acegryoqftbzowsg.tif	931931.856276	931932.114865	931932.805010	6.674442e-01	7	none	NaN	NaN
 105	7	55	32	bathroom	sun_aleqenyvunhactkl.tif	931933.574635	931933.833229	931934.523433	8.426483e-01	22	37	931935.983933	1
 105	7	56	37	bathroom	sun_amzlamotzwfkwjco.tif	931936.761122	931937.019714	931937.710021	8.092760e-01	27	none	NaN	NaN
 105	7	57	59	bathroom	sun_axyrejkiiaqiurjk.tif	931938.479495	931938.738085	931939.428296	7.508747e-01	49	39	931941.039781	1
 105	7	58	41	bathroom	sun_aoybiabnpadelefl.tif	931941.816133	931942.074720	931942.764968	7.008164e-01	31	none	NaN	NaN
 105	7	59	26	bathroom	sun_ahaulkltgpkeeemi.tif	931943.534496	931943.793088	931944.483429	8.092760e-01	16	none	NaN	NaN
 105	7	60	55	bathroom	sun_avhrdrntsqrjzccq.tif	931945.252866	931945.511455	931946.201672	6.757872e-01	45	none	NaN	NaN
 105	7	61	40	bathroom	sun_aofnryafpsjimzsb.tif	931946.971232	931947.229821	931947.920014	7.341886e-01	30	none	NaN	NaN
 105	7	62	33	bathroom	sun_aljolscmmzydegqp.tif	931948.689600	931948.948188	931949.638350	6.924733e-01	23	none	NaN	NaN
 105	7	63	24	bathroom	sun_agrwbmhcpmfuwmsg.tif	931950.407966	931950.666555	931951.356757	7.592177e-01	14	none	NaN	NaN
 105	7	64	39	bathroom	sun_anryaplzeujmzfkd.tif	931952.126334	931952.384922	931953.075125	8.509913e-01	29	none	NaN	NaN
 105	7	65	38	bathroom	sun_anhioqovhscjqqwb.tif	931953.844705	931954.103292	931954.793605	6.591011e-01	28	none	NaN	NaN
 105	7	66	15	bathroom	sun_abjtwfukuwddzted.tif	931955.563068	931955.821663	931956.511949	6.757872e-01	5	none	NaN	NaN
 105	7	67	42	bathroom	sun_apeeialkgkuxddgh.tif	931957.281433	931957.540025	931958.230362	7.842469e-01	32	none	NaN	NaN
 105	7	68	11	bathroom	labelme_sfxiulhjbhlyiyt.tif	931958.999804	931959.258392	931959.948586	8.509913e-01	1	none	NaN	NaN
 105	7	69	12	bathroom	sun_aapitsgbtktqubfy.tif	931960.718172	931960.976762	931961.667121	6.841303e-01	2	none	NaN	NaN
 105	7	70	43	bathroom	sun_apjevzvycyhuqghb.tif	931962.436539	931962.695130	931963.385391	7.258455e-01	33	none	NaN	NaN
 105	7	71	47	bathroom	sun_apynckhmoftszqoq.tif	931964.154905	931964.413499	931965.103813	8.009330e-01	37	37	931965.976075	1
 105	7	72	34	bathroom	sun_alkosphxlxwjwgjd.tif	931966.749145	931967.007725	931967.698076	7.592177e-01	24	none	NaN	NaN
 105	7	73	30	bathroom	sun_ajlawzvmubibwbpy.tif	931968.467505	931968.726098	931969.416315	7.175025e-01	20	none	NaN	NaN
 105	7	74	56	bathroom	sun_awnqiikzaispgmwo.tif	931970.185879	931970.444466	931971.134793	6.591011e-01	46	none	NaN	NaN
 105	7	75	36	bathroom	sun_ambriybtogmepttm.tif	931971.904241	931972.162827	931972.853112	8.176191e-01	26	none	NaN	NaN
 105	7	76	46	bathroom	sun_apmqjbnwghzuhhzh.tif	931973.622612	931973.881196	931974.571471	6.674442e-01	36	none	NaN	NaN
 105	7	77	14	bathroom	sun_abapwbhyhkfixyex.tif	931975.340978	931975.599566	931976.289753	7.759038e-01	4	none	NaN	NaN
 105	7	78	19	bathroom	sun_aclfzgynxzxlbepz.tif	931977.059348	931977.317936	931978.008260	6.924733e-01	9	none	NaN	NaN
 105	7	79	25	bathroom	sun_agyqfjcfkdcydepw.tif	931978.777714	931979.036306	931979.726658	7.008164e-01	15	none	NaN	NaN
 105	7	80	13	bathroom	sun_aavhrsfjbserjtht.tif	931980.496080	931980.754668	931981.444881	7.258455e-01	3	none	NaN	NaN
 105	7	81	60	bathroom	sun_azqyogdvyhahyram.tif	931982.214447	931982.473038	931983.163372	7.425316e-01	50	none	NaN	NaN
 105	7	82	50	bathroom	sun_aspsyogrekjtfozg.tif	931983.932818	931984.191402	931984.881597	6.507581e-01	40	39	931988.095763	1
 105	7	83	22	bathroom	sun_agguqiubmwhqqunb.tif	931988.871032	931989.129628	931989.819781	6.591011e-01	12	none	NaN	NaN
 105	7	84	20	bathroom	sun_afcoljnjfoxjtgja.tif	931990.589401	931990.847990	931991.538245	8.259621e-01	10	none	NaN	NaN
 105	7	85	18	bathroom	sun_acgyywnybuveqsro.tif	931992.307770	931992.566362	931993.256613	6.757872e-01	8	none	NaN	NaN
 105	7	86	58	bathroom	sun_axxbkopsgyouuebh.tif	931994.026139	931994.284725	931994.975018	7.759038e-01	48	none	NaN	NaN
 105	7	87	35	bathroom	sun_alotolagknyrgtsk.tif	931995.744504	931996.003093	931996.693382	7.258455e-01	25	none	NaN	NaN
 105	7	88	44	bathroom	sun_apkruvsevgegsdwp.tif	931997.462873	931997.721462	931998.411823	7.008164e-01	34	none	NaN	NaN
 105	7	89	48	bathroom	sun_aqrpegblszgcoujh.tif	931999.181243	931999.439831	932000.130104	7.842469e-01	38	none	NaN	NaN
 105	7	90	45	bathroom	sun_apkxzenqapsujocq.tif	932000.899610	932001.158191	932001.848402	7.842469e-01	35	none	NaN	NaN
 105	7	91	57	bathroom	sun_axldvoqbuvuggfmq.tif	932002.617974	932002.876561	932003.566805	7.091594e-01	47	39	932004.775929	1
 105	7	92	51	bathroom	sun_atstyziqcmkahyxk.tif	932005.554209	932005.812801	932006.502997	7.175025e-01	41	none	NaN	NaN
 105	7	93	31	bathroom	sun_akiytfaagpdsphgz.tif	932007.272579	932007.531167	932008.221474	7.925899e-01	21	none	NaN	NaN
 105	7	94	29	bathroom	sun_ahqjwnzgolcaoidx.tif	932008.990946	932009.249537	932009.939873	8.259621e-01	19	none	NaN	NaN
 105	7	95	54	bathroom	sun_auzqhkafidnkrwmo.tif	932010.709318	932010.967906	932011.658270	8.426483e-01	44	37	932013.871942	1
 105	7	96	49	bathroom	sun_asfwthctfqerjvxr.tif	932014.646549	932014.905127	932015.595439	7.759038e-01	39	none	NaN	NaN
 105	7	97	52	bathroom	sun_aunuadmjocsddsrl.tif	932016.364911	932016.623504	932017.313697	7.675608e-01	42	none	NaN	NaN
 105	7	98	28	bathroom	sun_ahijqszoswveeyji.tif	932018.083284	932018.341872	932019.032040	6.841303e-01	18	none	NaN	NaN
 105	7	99	21	bathroom	sun_aggnnqpdorgxpvce.tif	932019.801649	932020.060242	932020.750599	7.091594e-01	11	37	932021.504042	1
 105	7	100	27	bathroom	sun_ahcvzmoyaycdoftf.tif	932022.279102	932022.537688	932023.228016	7.675608e-01	17	none	NaN	NaN
 105	8	1	66	kitchen	sun_aapllqyqlykszopd.tif	932140.404351	932140.662943	932141.344884	6.757872e-01	56	none	NaN	NaN
 105	8	2	91	kitchen	sun_ahljzhgcdpomplvg.tif	932142.114374	932142.372966	932143.054867	7.592177e-01	81	39	932144.655993	0
 105	8	3	104	kitchen	sun_auticobqsbwgoppi.tif	932145.434325	932145.692916	932146.374920	8.509913e-01	94	none	NaN	NaN
 105	8	4	109	kitchen	sun_aypmqwcualkenuoe.tif	932147.144353	932147.402945	932148.084880	7.759038e-01	99	none	NaN	NaN
 105	8	5	81	kitchen	sun_aehawpgmrlhlvcow.tif	932148.854382	932149.112970	932149.795152	7.091594e-01	71	37	932150.487924	1
 105	8	6	101	kitchen	sun_aqeaevwwwjoqhzvl.tif	932151.265101	932151.523692	932152.205543	7.258455e-01	91	none	NaN	NaN
 105	8	7	85	kitchen	sun_afuyedyxivkhecmu.tif	932152.975124	932153.233714	932153.915559	8.176191e-01	75	none	NaN	NaN
 105	8	8	83	kitchen	sun_aeqdocilnnpuvuhx.tif	932154.685148	932154.943745	932155.625671	6.924733e-01	73	none	NaN	NaN
 105	8	9	80	kitchen	sun_aegoxogugdkwpmpj.tif	932156.395178	932156.653768	932157.335665	8.092760e-01	70	none	NaN	NaN
 105	8	10	86	kitchen	sun_aggjlwcdjsjcaemh.tif	932158.105203	932158.363791	932159.045646	6.674442e-01	76	39	932159.936005	1
 105	8	11	65	kitchen	sun_aamedkxepzlwuxes.tif	932160.707782	932160.966369	932161.648371	7.008164e-01	55	none	NaN	NaN
 105	8	12	98	kitchen	sun_akchetnepxlcxhsu.tif	932162.417803	932162.676390	932163.358363	7.008164e-01	88	none	NaN	NaN
 105	8	13	77	kitchen	sun_acxkpeoqbwcxfvip.tif	932164.127833	932164.386422	932165.068428	8.009330e-01	67	none	NaN	NaN
 105	8	14	96	kitchen	sun_ajcbwwvdlsvjyzje.tif	932165.837857	932166.096448	932166.778385	8.259621e-01	86	none	NaN	NaN
 105	8	15	84	kitchen	sun_aexklacwqwezaorf.tif	932167.547879	932167.806469	932168.488336	7.258455e-01	74	39	932169.279904	1
 105	8	16	79	kitchen	sun_admlmbcdswaszruo.tif	932170.050356	932170.308951	932170.990836	7.508747e-01	69	none	NaN	NaN
 105	8	17	89	kitchen	sun_agzzivivdpnawacl.tif	932171.760381	932172.018976	932172.700986	8.426483e-01	79	37	932173.551756	1
 105	8	18	92	kitchen	sun_ahpczsiumwwocjkv.tif	932174.329591	932174.588182	932175.270094	8.426483e-01	82	none	NaN	NaN
 105	8	19	93	kitchen	sun_ahspylgoovwmwvgk.tif	932176.039619	932176.298213	932176.980144	7.759038e-01	83	39	932178.375820	1
 105	8	20	87	kitchen	sun_agorklincwxrdtga.tif	932179.151032	932179.409622	932180.091520	7.842469e-01	77	37	932180.999816	1
 105	8	21	68	kitchen	sun_aaxxjlsuzvqlgylf.tif	932181.770294	932182.028884	932182.710786	6.841303e-01	58	none	NaN	NaN
 105	8	22	76	kitchen	sun_acwjdupvyjsugpay.tif	932183.480319	932183.738912	932184.420934	6.591011e-01	66	none	NaN	NaN
 105	8	23	67	kitchen	sun_aarfiyshqohlwkmo.tif	932185.190346	932185.448937	932186.130846	6.591011e-01	57	none	NaN	NaN
 105	8	24	97	kitchen	sun_ajkqhtgcbgpcwrwn.tif	932186.900370	932187.158960	932187.840833	7.508747e-01	87	none	NaN	NaN
 105	8	25	110	kitchen	sun_azmutvzbxypaceni.tif	932188.610396	932188.868987	932189.550983	7.175025e-01	100	none	NaN	NaN
 105	8	26	105	kitchen	sun_avszsnwsbuqfgzbn.tif	932190.320423	932190.579010	932191.260993	7.842469e-01	95	none	NaN	NaN
 105	8	27	70	kitchen	sun_abdxkyyxwfskuaqb.tif	932192.030450	932192.289040	932192.971033	8.509913e-01	60	none	NaN	NaN
 105	8	28	69	kitchen	sun_abdenxonkemggwsq.tif	932193.740469	932193.999062	932194.681006	7.508747e-01	59	none	NaN	NaN
 105	8	29	64	kitchen	sun_aadbddgrdsjugojn.tif	932195.450496	932195.709090	932196.390961	8.426483e-01	54	none	NaN	NaN
 105	8	30	72	kitchen	sun_abpwyqmlzafvklqo.tif	932197.160524	932197.419115	932198.101017	7.675608e-01	62	none	NaN	NaN
 105	8	31	71	kitchen	sun_abftihopvusyfakt.tif	932198.870555	932199.129141	932199.811036	7.592177e-01	61	none	NaN	NaN
 105	8	32	108	kitchen	sun_aymvwlarqodbwuoc.tif	932200.580581	932200.839168	932201.521035	8.343052e-01	98	none	NaN	NaN
 105	8	33	102	kitchen	sun_auaiucuqpdausiva.tif	932202.290607	932202.549198	932203.231159	7.341886e-01	92	none	NaN	NaN
 105	8	34	75	kitchen	sun_acgtpgfybqjmzeyw.tif	932204.000633	932204.259220	932204.941080	7.925899e-01	65	none	NaN	NaN
 105	8	35	100	kitchen	sun_amjjdeyrggfqgmom.tif	932205.710654	932205.969247	932206.651214	8.259621e-01	90	none	NaN	NaN
 105	8	36	74	kitchen	sun_acfmftudsenhrfhy.tif	932207.420682	932207.679270	932208.361137	7.675608e-01	64	none	NaN	NaN
 105	8	37	73	kitchen	sun_abrcnpqqhmjwekyf.tif	932209.130705	932209.389298	932210.071115	8.009330e-01	63	none	NaN	NaN
 105	8	38	94	kitchen	sun_ahywdevtimnqcsln.tif	932210.840735	932211.099322	932211.781276	8.176191e-01	84	none	NaN	NaN
 105	8	39	106	kitchen	sun_awcpdzzznmweyyhv.tif	932212.550757	932212.809345	932213.491208	6.924733e-01	96	none	NaN	NaN
 105	8	40	103	kitchen	sun_aunzlwrbjumxhwdj.tif	932214.260785	932214.519376	932215.201321	7.175025e-01	93	none	NaN	NaN
 105	8	41	99	kitchen	sun_akcjzhbbjlbogpdi.tif	932215.970812	932216.229403	932216.911233	7.425316e-01	89	none	NaN	NaN
 105	8	42	63	kitchen	labelme_rykdqxenmhulbdn.tif	932217.680836	932217.939426	932218.621269	8.259621e-01	53	none	NaN	NaN
 105	8	43	61	kitchen	labelme_brsyyvweiuaazfr.tif	932219.390865	932219.649453	932220.331363	7.508747e-01	51	none	NaN	NaN
 105	8	44	88	kitchen	sun_agubuxuukhzyzpdp.tif	932221.100890	932221.359482	932222.041348	7.592177e-01	78	none	NaN	NaN
 105	8	45	95	kitchen	sun_aixorpehvfykdynp.tif	932222.810911	932223.069508	932223.751367	7.091594e-01	85	none	NaN	NaN
 105	8	46	62	kitchen	labelme_kxvouciolcpqplr.tif	932224.520945	932224.779480	932225.461356	7.842469e-01	52	none	NaN	NaN
 105	8	47	78	kitchen	sun_adgqasybjyktddhj.tif	932226.230968	932226.489558	932227.171473	8.426483e-01	68	none	NaN	NaN
 105	8	48	82	kitchen	sun_aenotlpyftoioydp.tif	932227.940996	932228.199580	932228.881415	6.757872e-01	72	37	932230.567793	1
 105	8	49	90	kitchen	sun_ahdycvpopffkzzsu.tif	932231.344363	932231.602947	932232.284862	7.425316e-01	80	none	NaN	NaN
 105	8	50	107	kitchen	sun_axyyrmzcupyhlivc.tif	932233.054388	932233.312980	932233.994870	6.841303e-01	97	none	NaN	NaN
 105	8	51	109	kitchen	sun_aypmqwcualkenuoe.tif	932234.764417	932235.023007	932235.705003	7.759038e-01	99	none	NaN	NaN
 105	8	52	75	kitchen	sun_acgtpgfybqjmzeyw.tif	932236.474439	932236.733033	932237.414867	7.175025e-01	65	none	NaN	NaN
 105	8	53	76	kitchen	sun_acwjdupvyjsugpay.tif	932238.184462	932238.443054	932239.124899	6.757872e-01	66	none	NaN	NaN
 105	8	54	66	kitchen	sun_aapllqyqlykszopd.tif	932239.894494	932240.153083	932240.834949	6.507581e-01	56	none	NaN	NaN
 105	8	55	107	kitchen	sun_axyyrmzcupyhlivc.tif	932241.604520	932241.863105	932242.545046	7.008164e-01	97	37	932243.615723	1
 105	8	56	64	kitchen	sun_aadbddgrdsjugojn.tif	932244.390608	932244.649199	932245.331086	8.259621e-01	54	37	932247.295869	1
 105	8	57	101	kitchen	sun_aqeaevwwwjoqhzvl.tif	932248.069249	932248.327839	932249.009721	6.924733e-01	91	none	NaN	NaN
 105	8	58	79	kitchen	sun_admlmbcdswaszruo.tif	932249.779272	932250.037865	932250.719776	7.258455e-01	69	none	NaN	NaN
 105	8	59	61	kitchen	labelme_brsyyvweiuaazfr.tif	932251.489299	932251.747894	932252.429737	7.592177e-01	51	none	NaN	NaN
 105	8	60	92	kitchen	sun_ahpczsiumwwocjkv.tif	932253.199329	932253.457915	932254.139851	7.592177e-01	82	none	NaN	NaN
 105	8	61	63	kitchen	labelme_rykdqxenmhulbdn.tif	932254.909352	932255.167947	932255.849907	7.341886e-01	53	none	NaN	NaN
 105	8	62	93	kitchen	sun_ahspylgoovwmwvgk.tif	932256.619380	932256.877966	932257.559812	7.258455e-01	83	none	NaN	NaN
 105	8	63	106	kitchen	sun_awcpdzzznmweyyhv.tif	932258.329404	932258.587994	932259.269844	6.924733e-01	96	none	NaN	NaN
 105	8	64	83	kitchen	sun_aeqdocilnnpuvuhx.tif	932260.039434	932260.298018	932260.980029	6.841303e-01	73	none	NaN	NaN
 105	8	65	70	kitchen	sun_abdxkyyxwfskuaqb.tif	932261.749454	932262.008049	932262.689875	7.008164e-01	60	none	NaN	NaN
 105	8	66	84	kitchen	sun_aexklacwqwezaorf.tif	932263.459485	932263.718073	932264.399878	7.759038e-01	74	none	NaN	NaN
 105	8	67	78	kitchen	sun_adgqasybjyktddhj.tif	932265.169507	932265.428098	932266.110139	7.925899e-01	68	none	NaN	NaN
 105	8	68	77	kitchen	sun_acxkpeoqbwcxfvip.tif	932266.879535	932267.138123	932267.820146	7.842469e-01	67	none	NaN	NaN
 105	8	69	74	kitchen	sun_acfmftudsenhrfhy.tif	932268.589561	932268.848151	932269.530032	8.092760e-01	64	none	NaN	NaN
 105	8	70	94	kitchen	sun_ahywdevtimnqcsln.tif	932270.299588	932270.558174	932271.240029	7.091594e-01	84	39	932272.263840	1
 105	8	71	95	kitchen	sun_aixorpehvfykdynp.tif	932273.035630	932273.294220	932273.976158	6.674442e-01	85	39	932275.487680	1
 105	8	72	73	kitchen	sun_abrcnpqqhmjwekyf.tif	932276.263820	932276.522415	932277.204316	8.009330e-01	63	37	932277.983812	1
 105	8	73	88	kitchen	sun_agubuxuukhzyzpdp.tif	932278.757965	932279.016549	932279.698504	8.176191e-01	78	none	NaN	NaN
 105	8	74	98	kitchen	sun_akchetnepxlcxhsu.tif	932280.467979	932280.726576	932281.408537	8.009330e-01	88	none	NaN	NaN
 105	8	75	80	kitchen	sun_aegoxogugdkwpmpj.tif	932282.178007	932282.436601	932283.118473	6.674442e-01	70	39	932284.312029	1
 105	8	76	65	kitchen	sun_aamedkxepzlwuxes.tif	932285.089226	932285.347810	932286.029653	7.675608e-01	55	none	NaN	NaN
 105	8	77	103	kitchen	sun_aunzlwrbjumxhwdj.tif	932286.799256	932287.057845	932287.739649	7.425316e-01	93	none	NaN	NaN
 105	8	78	86	kitchen	sun_aggjlwcdjsjcaemh.tif	932288.509279	932288.767867	932289.449750	8.092760e-01	76	none	NaN	NaN
 105	8	79	71	kitchen	sun_abftihopvusyfakt.tif	932290.219304	932290.477895	932291.159788	7.425316e-01	61	none	NaN	NaN
 105	8	80	81	kitchen	sun_aehawpgmrlhlvcow.tif	932291.929334	932292.187922	932292.869815	8.343052e-01	71	none	NaN	NaN
 105	8	81	96	kitchen	sun_ajcbwwvdlsvjyzje.tif	932293.639358	932293.897946	932294.579804	6.591011e-01	86	none	NaN	NaN
 105	8	82	102	kitchen	sun_auaiucuqpdausiva.tif	932295.349385	932295.607971	932296.289887	6.924733e-01	92	none	NaN	NaN
 105	8	83	62	kitchen	labelme_kxvouciolcpqplr.tif	932297.059404	932297.317996	932297.999799	7.341886e-01	52	none	NaN	NaN
 105	8	84	108	kitchen	sun_aymvwlarqodbwuoc.tif	932298.769433	932299.028022	932299.710003	6.591011e-01	98	none	NaN	NaN
 105	8	85	72	kitchen	sun_abpwyqmlzafvklqo.tif	932300.479461	932300.738042	932301.419927	8.176191e-01	62	none	NaN	NaN
 105	8	86	87	kitchen	sun_agorklincwxrdtga.tif	932302.189485	932302.448080	932303.130049	7.341886e-01	77	none	NaN	NaN
 105	8	87	90	kitchen	sun_ahdycvpopffkzzsu.tif	932303.899512	932304.158102	932304.840048	7.925899e-01	80	none	NaN	NaN
 105	8	88	82	kitchen	sun_aenotlpyftoioydp.tif	932305.609538	932305.868127	932306.550132	6.841303e-01	72	none	NaN	NaN
 105	8	89	100	kitchen	sun_amjjdeyrggfqgmom.tif	932307.319565	932307.578149	932308.260010	7.175025e-01	90	39	932309.111850	1
 105	8	90	67	kitchen	sun_aarfiyshqohlwkmo.tif	932309.888774	932310.147363	932310.829223	7.091594e-01	57	none	NaN	NaN
 105	8	91	104	kitchen	sun_auticobqsbwgoppi.tif	932311.598797	932311.857387	932312.539580	8.092760e-01	94	none	NaN	NaN
 105	8	92	110	kitchen	sun_azmutvzbxypaceni.tif	932313.308826	932313.567412	932314.249249	7.675608e-01	100	none	NaN	NaN
 105	8	93	105	kitchen	sun_avszsnwsbuqfgzbn.tif	932315.018853	932315.277435	932315.959274	8.176191e-01	95	none	NaN	NaN
 105	8	94	97	kitchen	sun_ajkqhtgcbgpcwrwn.tif	932316.728881	932316.987462	932317.669407	8.343052e-01	87	none	NaN	NaN
 105	8	95	85	kitchen	sun_afuyedyxivkhecmu.tif	932318.438901	932318.697493	932319.379291	8.343052e-01	75	none	NaN	NaN
 105	8	96	89	kitchen	sun_agzzivivdpnawacl.tif	932320.148929	932320.407518	932321.089363	7.925899e-01	79	none	NaN	NaN
 105	8	97	91	kitchen	sun_ahljzhgcdpomplvg.tif	932321.858950	932322.117544	932322.799517	6.674442e-01	81	none	NaN	NaN
 105	8	98	99	kitchen	sun_akcjzhbbjlbogpdi.tif	932323.568984	932323.827574	932324.509585	6.507581e-01	89	none	NaN	NaN
 105	8	99	68	kitchen	sun_aaxxjlsuzvqlgylf.tif	932325.279001	932325.537595	932326.219571	6.757872e-01	58	none	NaN	NaN
 105	8	100	69	kitchen	sun_abdenxonkemggwsq.tif	932326.989032	932327.247624	932327.929583	6.507581e-01	59	none	NaN	NaN
 105	9	1	11	bathroom	labelme_sfxiulhjbhlyiyt.tif	932339.910157	932340.168742	932340.817306	7.759038e-01	1	none	NaN	NaN
 105	9	2	24	bathroom	sun_agrwbmhcpmfuwmsg.tif	932341.586816	932341.845402	932342.493887	8.509913e-01	14	none	NaN	NaN
 105	9	3	60	bathroom	sun_azqyogdvyhahyram.tif	932343.263474	932343.522064	932344.170620	7.008164e-01	50	none	NaN	NaN
 105	9	4	19	bathroom	sun_aclfzgynxzxlbepz.tif	932344.940134	932345.198722	932345.847253	7.925899e-01	9	none	NaN	NaN
 105	9	5	14	bathroom	sun_abapwbhyhkfixyex.tif	932346.616792	932346.875380	932347.523883	8.176191e-01	4	none	NaN	NaN
 105	9	6	15	bathroom	sun_abjtwfukuwddzted.tif	932348.293450	932348.552042	932349.200635	6.924733e-01	5	39	932350.063496	1
 105	9	7	21	bathroom	sun_aggnnqpdorgxpvce.tif	932350.837641	932351.096226	932351.744683	7.508747e-01	11	none	NaN	NaN
 105	9	8	38	bathroom	sun_anhioqovhscjqqwb.tif	932352.514300	932352.772886	932353.421478	6.507581e-01	28	none	NaN	NaN
 105	9	9	44	bathroom	sun_apkruvsevgegsdwp.tif	932354.190957	932354.449547	932355.098186	6.591011e-01	34	none	NaN	NaN
 105	9	10	56	bathroom	sun_awnqiikzaispgmwo.tif	932355.867617	932356.126204	932356.774794	6.591011e-01	46	none	NaN	NaN
 105	9	11	16	bathroom	sun_acduarbnmmoglmiv.tif	932357.544279	932357.802862	932358.451485	8.259621e-01	6	none	NaN	NaN
 105	9	12	45	bathroom	sun_apkxzenqapsujocq.tif	932359.220935	932359.479522	932360.128026	8.009330e-01	35	none	NaN	NaN
 105	9	13	18	bathroom	sun_acgyywnybuveqsro.tif	932360.897595	932361.156186	932361.804695	8.426483e-01	8	none	NaN	NaN
 105	9	14	20	bathroom	sun_afcoljnjfoxjtgja.tif	932362.574253	932362.832840	932363.481350	7.759038e-01	10	37	932364.271649	1
 105	9	15	49	bathroom	sun_asfwthctfqerjvxr.tif	932365.043365	932365.301950	932365.950483	8.092760e-01	39	none	NaN	NaN
 105	9	16	31	bathroom	sun_akiytfaagpdsphgz.tif	932366.720026	932366.978615	932367.627148	7.592177e-01	21	none	NaN	NaN
 105	9	17	17	bathroom	sun_acegryoqftbzowsg.tif	932368.396684	932368.655274	932369.303866	7.425316e-01	7	none	NaN	NaN
 105	9	18	54	bathroom	sun_auzqhkafidnkrwmo.tif	932370.073343	932370.331937	932370.980583	8.509913e-01	44	none	NaN	NaN
 105	9	19	50	bathroom	sun_aspsyogrekjtfozg.tif	932371.750002	932372.008591	932372.657163	8.176191e-01	40	none	NaN	NaN
 105	9	20	34	bathroom	sun_alkosphxlxwjwgjd.tif	932373.426662	932373.685256	932374.333806	7.341886e-01	24	37	932375.007633	1
 105	9	21	53	bathroom	sun_ausgutylgojavyoq.tif	932375.778998	932376.037580	932376.686021	6.841303e-01	43	none	NaN	NaN
 105	9	22	13	bathroom	sun_aavhrsfjbserjtht.tif	932377.455656	932377.714239	932378.362871	6.674442e-01	3	none	NaN	NaN
 105	9	23	52	bathroom	sun_aunuadmjocsddsrl.tif	932379.132309	932379.390902	932380.039359	6.507581e-01	42	none	NaN	NaN
 105	9	24	12	bathroom	sun_aapitsgbtktqubfy.tif	932380.808973	932381.067559	932381.716192	7.592177e-01	2	none	NaN	NaN
 105	9	25	39	bathroom	sun_anryaplzeujmzfkd.tif	932382.485628	932382.744219	932383.392717	7.341886e-01	29	none	NaN	NaN
 105	9	26	29	bathroom	sun_ahqjwnzgolcaoidx.tif	932384.162289	932384.420875	932385.069335	7.091594e-01	19	none	NaN	NaN
 105	9	27	26	bathroom	sun_ahaulkltgpkeeemi.tif	932385.838946	932386.097542	932386.746022	6.674442e-01	16	37	932387.647737	1
 105	9	28	51	bathroom	sun_atstyziqcmkahyxk.tif	932388.424842	932388.683423	932389.331894	7.091594e-01	41	none	NaN	NaN
 105	9	29	41	bathroom	sun_aoybiabnpadelefl.tif	932390.101504	932390.360089	932391.008585	7.842469e-01	31	none	NaN	NaN
 105	9	30	28	bathroom	sun_ahijqszoswveeyji.tif	932391.778163	932392.036749	932392.685342	7.425316e-01	18	none	NaN	NaN
 105	9	31	57	bathroom	sun_axldvoqbuvuggfmq.tif	932393.454823	932393.713410	932394.361872	7.925899e-01	47	none	NaN	NaN
 105	9	32	32	bathroom	sun_aleqenyvunhactkl.tif	932395.131478	932395.390070	932396.038498	6.924733e-01	22	39	932397.031595	1
 105	9	33	25	bathroom	sun_agyqfjcfkdcydepw.tif	932397.809149	932398.067724	932398.716189	8.009330e-01	15	none	NaN	NaN
 105	9	34	30	bathroom	sun_ajlawzvmubibwbpy.tif	932399.485791	932399.744381	932400.392810	8.259621e-01	20	none	NaN	NaN
 105	9	35	58	bathroom	sun_axxbkopsgyouuebh.tif	932401.162445	932401.421042	932402.069595	7.508747e-01	48	none	NaN	NaN
 105	9	36	48	bathroom	sun_aqrpegblszgcoujh.tif	932402.839112	932403.097699	932403.746325	7.675608e-01	38	none	NaN	NaN
 105	9	37	36	bathroom	sun_ambriybtogmepttm.tif	932404.515768	932404.774360	932405.422985	8.176191e-01	26	none	NaN	NaN
 105	9	38	33	bathroom	sun_aljolscmmzydegqp.tif	932406.192424	932406.451016	932407.099619	7.675608e-01	23	none	NaN	NaN
 105	9	39	42	bathroom	sun_apeeialkgkuxddgh.tif	932407.869089	932408.127667	932408.776245	7.842469e-01	32	none	NaN	NaN
 105	9	40	55	bathroom	sun_avhrdrntsqrjzccq.tif	932409.545748	932409.804339	932410.452999	6.757872e-01	45	39	932413.751460	0
 105	9	41	46	bathroom	sun_apmqjbnwghzuhhzh.tif	932414.525677	932414.784267	932415.432736	6.841303e-01	36	none	NaN	NaN
 105	9	42	22	bathroom	sun_agguqiubmwhqqunb.tif	932416.202338	932416.460922	932417.109481	6.591011e-01	12	none	NaN	NaN
 105	9	43	27	bathroom	sun_ahcvzmoyaycdoftf.tif	932417.878996	932418.137588	932418.786104	6.757872e-01	17	none	NaN	NaN
