subject	block	trial	texture	category	image	trialOnset	itiOnset	trialEnd	iti	EEGtrigger	responseKey	responseTime	accuracy
 114	1	1	13	bathroom	sun_aavhrsfjbserjtht.tif	114966.329068	114966.587657	114967.327896	7.508129e-01	3	none	NaN	NaN
 114	1	2	49	bathroom	sun_asfwthctfqerjvxr.tif	114968.097479	114968.356077	114969.096298	8.425790e-01	39	none	NaN	NaN
 114	1	3	25	bathroom	sun_agyqfjcfkdcydepw.tif	114969.865907	114970.124502	114970.864750	6.590469e-01	15	39	114972.421167	1
 114	1	4	38	bathroom	sun_anhioqovhscjqqwb.tif	114973.194204	114973.452799	114974.193065	7.841824e-01	28	none	NaN	NaN
 114	1	5	37	bathroom	sun_amzlamotzwfkwjco.tif	114974.962623	114975.221215	114975.961389	7.174435e-01	27	none	NaN	NaN
 114	1	6	16	bathroom	sun_acduarbnmmoglmiv.tif	114976.731035	114976.989634	114977.729987	6.924164e-01	6	none	NaN	NaN
 114	1	7	41	bathroom	sun_aoybiabnpadelefl.tif	114978.499455	114978.758048	114979.498267	6.924164e-01	31	39	114980.781216	1
 114	1	8	55	bathroom	sun_avhrdrntsqrjzccq.tif	114981.552485	114981.811075	114982.551316	6.924164e-01	45	none	NaN	NaN
 114	1	9	60	bathroom	sun_azqyogdvyhahyram.tif	114983.320905	114983.579495	114984.319703	7.424706e-01	50	39	114987.237265	0
 114	1	10	29	bathroom	sun_ahqjwnzgolcaoidx.tif	114988.008882	114988.267469	114989.007800	7.341282e-01	19	none	NaN	NaN
 114	1	11	15	bathroom	sun_abjtwfukuwddzted.tif	114989.777301	114990.035888	114990.776055	8.342366e-01	5	37	114991.693328	1
 114	1	12	39	bathroom	sun_anryaplzeujmzfkd.tif	114992.471634	114992.730221	114993.470433	6.757316e-01	29	none	NaN	NaN
 114	1	13	17	bathroom	sun_acegryoqftbzowsg.tif	114994.240050	114994.498645	114995.238958	8.092095e-01	7	none	NaN	NaN
 114	1	14	30	bathroom	sun_ajlawzvmubibwbpy.tif	114996.008472	114996.267062	114997.007346	8.175519e-01	20	none	NaN	NaN
 114	1	15	23	bathroom	sun_aghyqhbptboemmoq.tif	114997.776886	114998.035476	114998.775671	7.841824e-01	13	none	NaN	NaN
 114	1	16	53	bathroom	sun_ausgutylgojavyoq.tif	114999.545308	114999.803903	115000.544099	7.508129e-01	43	none	NaN	NaN
 114	1	17	59	bathroom	sun_axyrejkiiaqiurjk.tif	115001.313725	115001.572317	115002.312531	7.424706e-01	49	none	NaN	NaN
 114	1	18	58	bathroom	sun_axxbkopsgyouuebh.tif	115003.082146	115003.340734	115004.081037	7.341282e-01	48	none	NaN	NaN
 114	1	19	14	bathroom	sun_abapwbhyhkfixyex.tif	115004.850579	115005.100659	115005.849318	7.091011e-01	4	none	NaN	NaN
 114	1	20	33	bathroom	sun_aljolscmmzydegqp.tif	115006.610434	115006.860724	115007.609272	6.924164e-01	23	none	NaN	NaN
 114	1	21	46	bathroom	sun_apmqjbnwghzuhhzh.tif	115008.370722	115008.629309	115009.369569	7.341282e-01	36	37	115011.173243	0
 114	1	22	18	bathroom	sun_acgyywnybuveqsro.tif	115011.949261	115012.207850	115012.948153	6.757316e-01	8	none	NaN	NaN
 114	1	23	19	bathroom	sun_aclfzgynxzxlbepz.tif	115013.717680	115013.976269	115014.716605	7.758400e-01	9	none	NaN	NaN
 114	1	24	11	bathroom	labelme_sfxiulhjbhlyiyt.tif	115015.486098	115015.744689	115016.484975	6.673893e-01	1	39	115017.973275	1
 114	1	25	27	bathroom	sun_ahcvzmoyaycdoftf.tif	115018.747661	115019.006243	115019.746397	8.258942e-01	17	none	NaN	NaN
 114	1	26	21	bathroom	sun_aggnnqpdorgxpvce.tif	115020.516079	115020.774670	115021.514872	7.591553e-01	11	none	NaN	NaN
 114	1	27	42	bathroom	sun_apeeialkgkuxddgh.tif	115022.284497	115022.543087	115023.283329	7.591553e-01	32	none	NaN	NaN
 114	1	28	56	bathroom	sun_awnqiikzaispgmwo.tif	115024.052917	115024.311513	115025.051719	8.175519e-01	46	none	NaN	NaN
 114	1	29	44	bathroom	sun_apkruvsevgegsdwp.tif	115025.821326	115026.079920	115026.820240	7.424706e-01	34	none	NaN	NaN
 114	1	30	20	bathroom	sun_afcoljnjfoxjtgja.tif	115027.589752	115027.848343	115028.588549	7.174435e-01	10	none	NaN	NaN
 114	1	31	28	bathroom	sun_ahijqszoswveeyji.tif	115029.358175	115029.616786	115030.357092	8.425790e-01	18	none	NaN	NaN
 114	1	32	26	bathroom	sun_ahaulkltgpkeeemi.tif	115031.126592	115031.385179	115032.125427	7.674977e-01	16	none	NaN	NaN
 114	1	33	22	bathroom	sun_agguqiubmwhqqunb.tif	115032.895007	115033.153604	115033.893806	6.924164e-01	12	none	NaN	NaN
 114	1	34	47	bathroom	sun_apynckhmoftszqoq.tif	115034.663429	115034.922018	115035.662288	7.591553e-01	37	none	NaN	NaN
 114	1	35	45	bathroom	sun_apkxzenqapsujocq.tif	115036.431849	115036.690432	115037.430678	8.175519e-01	35	none	NaN	NaN
 114	1	36	34	bathroom	sun_alkosphxlxwjwgjd.tif	115038.200259	115038.458854	115039.199190	8.342366e-01	24	none	NaN	NaN
 114	1	37	12	bathroom	sun_aapitsgbtktqubfy.tif	115039.968682	115040.227281	115040.967423	8.092095e-01	2	none	NaN	NaN
 114	1	38	52	bathroom	sun_aunuadmjocsddsrl.tif	115041.737097	115041.995689	115042.735874	7.091011e-01	42	none	NaN	NaN
 114	1	39	50	bathroom	sun_aspsyogrekjtfozg.tif	115043.505519	115043.764110	115044.504282	7.925248e-01	40	none	NaN	NaN
 114	1	40	54	bathroom	sun_auzqhkafidnkrwmo.tif	115045.273938	115045.532528	115046.272831	6.507045e-01	44	none	NaN	NaN
 114	1	41	31	bathroom	sun_akiytfaagpdsphgz.tif	115047.042359	115047.300944	115048.041210	6.590469e-01	21	37	115050.197158	0
 114	1	42	48	bathroom	sun_aqrpegblszgcoujh.tif	115050.971245	115051.229837	115051.970101	8.092095e-01	38	none	NaN	NaN
 114	1	43	35	bathroom	sun_alotolagknyrgtsk.tif	115052.739666	115052.998262	115053.738436	8.008671e-01	25	none	NaN	NaN
 114	1	44	24	bathroom	sun_agrwbmhcpmfuwmsg.tif	115054.508088	115054.766671	115055.506827	7.257858e-01	14	none	NaN	NaN
 114	1	45	40	bathroom	sun_aofnryafpsjimzsb.tif	115056.276503	115056.535094	115057.275362	7.841824e-01	30	none	NaN	NaN
 114	1	46	36	bathroom	sun_ambriybtogmepttm.tif	115058.044925	115058.303510	115059.043666	7.758400e-01	26	none	NaN	NaN
 114	1	47	57	bathroom	sun_axldvoqbuvuggfmq.tif	115059.813334	115060.071935	115060.812182	8.258942e-01	47	none	NaN	NaN
 114	1	48	43	bathroom	sun_apjevzvycyhuqghb.tif	115061.581762	115061.840351	115062.580699	6.507045e-01	33	none	NaN	NaN
 114	1	49	32	bathroom	sun_aleqenyvunhactkl.tif	115063.350180	115063.608772	115064.349016	7.007587e-01	22	none	NaN	NaN
 114	1	50	51	bathroom	sun_atstyziqcmkahyxk.tif	115065.118594	115065.377188	115066.117417	8.008671e-01	41	none	NaN	NaN
 114	1	51	59	bathroom	sun_axyrejkiiaqiurjk.tif	115066.887011	115067.145607	115067.885934	7.007587e-01	49	none	NaN	NaN
 114	1	52	11	bathroom	labelme_sfxiulhjbhlyiyt.tif	115068.655434	115068.914026	115069.654302	7.341282e-01	1	none	NaN	NaN
 114	1	53	25	bathroom	sun_agyqfjcfkdcydepw.tif	115070.423853	115070.682433	115071.422778	7.508129e-01	15	none	NaN	NaN
 114	1	54	16	bathroom	sun_acduarbnmmoglmiv.tif	115072.192273	115072.450857	115073.191088	7.174435e-01	6	none	NaN	NaN
 114	1	55	21	bathroom	sun_aggnnqpdorgxpvce.tif	115073.960691	115074.219278	115074.959587	7.591553e-01	11	none	NaN	NaN
 114	1	56	51	bathroom	sun_atstyziqcmkahyxk.tif	115075.729106	115075.987698	115076.727909	7.925248e-01	41	none	NaN	NaN
 114	1	57	32	bathroom	sun_aleqenyvunhactkl.tif	115077.497527	115077.756115	115078.496366	7.925248e-01	22	none	NaN	NaN
 114	1	58	33	bathroom	sun_aljolscmmzydegqp.tif	115079.265942	115079.524532	115080.264674	7.674977e-01	23	none	NaN	NaN
 114	1	59	18	bathroom	sun_acgyywnybuveqsro.tif	115081.034360	115081.292952	115082.033173	7.091011e-01	8	none	NaN	NaN
 114	1	60	36	bathroom	sun_ambriybtogmepttm.tif	115082.802781	115083.061364	115083.801662	7.841824e-01	26	none	NaN	NaN
 114	1	61	13	bathroom	sun_aavhrsfjbserjtht.tif	115084.571197	115084.829788	115085.570059	8.509213e-01	3	none	NaN	NaN
 114	1	62	56	bathroom	sun_awnqiikzaispgmwo.tif	115086.339619	115086.598206	115087.338387	7.758400e-01	46	37	115091.069181	0
 114	1	63	14	bathroom	sun_abapwbhyhkfixyex.tif	115091.845068	115092.103657	115092.843825	6.590469e-01	4	none	NaN	NaN
 114	1	64	45	bathroom	sun_apkxzenqapsujocq.tif	115093.613489	115093.872080	115094.612260	8.092095e-01	35	none	NaN	NaN
 114	1	65	38	bathroom	sun_anhioqovhscjqqwb.tif	115095.381908	115095.640499	115096.380818	8.258942e-01	28	39	115097.805115	0
 114	1	66	44	bathroom	sun_apkruvsevgegsdwp.tif	115098.576740	115098.835327	115099.575525	8.008671e-01	34	39	115100.725295	0
 114	1	67	35	bathroom	sun_alotolagknyrgtsk.tif	115101.496299	115101.754883	115102.495078	6.673893e-01	25	none	NaN	NaN
 114	1	68	55	bathroom	sun_avhrdrntsqrjzccq.tif	115103.264713	115103.523305	115104.263532	6.757316e-01	45	39	115105.493381	1
 114	1	69	22	bathroom	sun_agguqiubmwhqqunb.tif	115106.267691	115106.526278	115107.266600	6.840740e-01	12	none	NaN	NaN
 114	1	70	24	bathroom	sun_agrwbmhcpmfuwmsg.tif	115108.036106	115108.294690	115109.035005	7.424706e-01	14	none	NaN	NaN
 114	1	71	47	bathroom	sun_apynckhmoftszqoq.tif	115109.804529	115110.063114	115110.803581	8.342366e-01	37	none	NaN	NaN
 114	1	72	53	bathroom	sun_ausgutylgojavyoq.tif	115111.572943	115111.831529	115112.571890	7.591553e-01	43	none	NaN	NaN
 114	1	73	15	bathroom	sun_abjtwfukuwddzted.tif	115113.341364	115113.599952	115114.340308	8.008671e-01	5	none	NaN	NaN
 114	1	74	28	bathroom	sun_ahijqszoswveeyji.tif	115115.109779	115115.368373	115116.108751	7.257858e-01	18	none	NaN	NaN
 114	1	75	26	bathroom	sun_ahaulkltgpkeeemi.tif	115116.878199	115117.136785	115117.876966	8.175519e-01	16	37	115118.933318	1
 114	1	76	58	bathroom	sun_axxbkopsgyouuebh.tif	115119.705999	115119.964588	115120.704945	6.840740e-01	48	none	NaN	NaN
 114	1	77	17	bathroom	sun_acegryoqftbzowsg.tif	115121.474420	115121.733004	115122.473229	6.840740e-01	7	39	115123.557197	0
 114	1	78	54	bathroom	sun_auzqhkafidnkrwmo.tif	115124.335581	115124.594169	115125.334371	8.342366e-01	44	none	NaN	NaN
 114	1	79	30	bathroom	sun_ajlawzvmubibwbpy.tif	115126.104004	115126.362598	115127.102906	7.174435e-01	20	none	NaN	NaN
 114	1	80	19	bathroom	sun_aclfzgynxzxlbepz.tif	115127.872371	115128.131016	115128.871206	8.175519e-01	9	none	NaN	NaN
 114	1	81	60	bathroom	sun_azqyogdvyhahyram.tif	115129.640839	115129.899430	115130.639584	7.257858e-01	50	none	NaN	NaN
 114	1	82	50	bathroom	sun_aspsyogrekjtfozg.tif	115131.409261	115131.667851	115132.408084	7.758400e-01	40	none	NaN	NaN
 114	1	83	42	bathroom	sun_apeeialkgkuxddgh.tif	115133.177675	115133.436270	115134.176444	7.007587e-01	32	none	NaN	NaN
 114	1	84	49	bathroom	sun_asfwthctfqerjvxr.tif	115134.946099	115135.204685	115135.944971	7.674977e-01	39	none	NaN	NaN
 114	1	85	27	bathroom	sun_ahcvzmoyaycdoftf.tif	115136.714514	115136.973109	115137.713277	7.007587e-01	17	none	NaN	NaN
 114	1	86	12	bathroom	sun_aapitsgbtktqubfy.tif	115138.482934	115138.741526	115139.481835	7.257858e-01	2	none	NaN	NaN
 114	1	87	23	bathroom	sun_aghyqhbptboemmoq.tif	115140.251352	115140.509940	115141.250146	6.507045e-01	13	39	115144.525261	1
 114	1	88	20	bathroom	sun_afcoljnjfoxjtgja.tif	115145.298031	115145.556609	115146.296883	8.425790e-01	10	none	NaN	NaN
 114	1	89	40	bathroom	sun_aofnryafpsjimzsb.tif	115147.066439	115147.325021	115148.065349	6.590469e-01	30	none	NaN	NaN
 114	1	90	39	bathroom	sun_anryaplzeujmzfkd.tif	115148.834854	115149.093443	115149.833646	6.840740e-01	29	none	NaN	NaN
 114	1	91	43	bathroom	sun_apjevzvycyhuqghb.tif	115150.603275	115150.861862	115151.602072	8.258942e-01	33	none	NaN	NaN
 114	1	92	34	bathroom	sun_alkosphxlxwjwgjd.tif	115152.371693	115152.630276	115153.370603	6.673893e-01	24	none	NaN	NaN
 114	1	93	41	bathroom	sun_aoybiabnpadelefl.tif	115154.140115	115154.398742	115155.138995	8.425790e-01	31	none	NaN	NaN
 114	1	94	46	bathroom	sun_apmqjbnwghzuhhzh.tif	115155.908527	115156.167119	115156.907300	6.757316e-01	36	none	NaN	NaN
 114	1	95	57	bathroom	sun_axldvoqbuvuggfmq.tif	115157.676946	115157.935533	115158.675717	8.509213e-01	47	none	NaN	NaN
 114	1	96	31	bathroom	sun_akiytfaagpdsphgz.tif	115159.445365	115159.703950	115160.444181	7.508129e-01	21	37	115161.685286	1
 114	1	97	37	bathroom	sun_amzlamotzwfkwjco.tif	115162.456677	115162.715268	115163.455429	7.091011e-01	27	none	NaN	NaN
 114	1	98	29	bathroom	sun_ahqjwnzgolcaoidx.tif	115164.225101	115164.483686	115165.223972	7.674977e-01	19	none	NaN	NaN
 114	1	99	52	bathroom	sun_aunuadmjocsddsrl.tif	115165.993520	115166.252110	115166.992457	7.925248e-01	42	none	NaN	NaN
 114	1	100	48	bathroom	sun_aqrpegblszgcoujh.tif	115167.761932	115168.020527	115168.760698	6.673893e-01	38	none	NaN	NaN
 114	2	1	62	kitchen	labelme_kxvouciolcpqplr.tif	115177.871949	115178.130561	115178.820683	8.258942e-01	52	none	NaN	NaN
 114	2	2	82	kitchen	sun_aenotlpyftoioydp.tif	115179.590315	115179.848908	115180.539010	7.007587e-01	72	none	NaN	NaN
 114	2	3	80	kitchen	sun_aegoxogugdkwpmpj.tif	115181.308689	115181.567275	115182.257463	8.258942e-01	70	none	NaN	NaN
 114	2	4	84	kitchen	sun_aexklacwqwezaorf.tif	115183.027057	115183.285644	115183.975856	7.508129e-01	74	none	NaN	NaN
 114	2	5	88	kitchen	sun_agubuxuukhzyzpdp.tif	115184.736954	115184.987197	115185.685851	7.424706e-01	78	none	NaN	NaN
 114	2	6	85	kitchen	sun_afuyedyxivkhecmu.tif	115186.447111	115186.705549	115187.395875	7.925248e-01	75	37	115190.381346	1
 114	2	7	73	kitchen	sun_abrcnpqqhmjwekyf.tif	115191.151771	115191.410360	115192.100637	7.591553e-01	63	none	NaN	NaN
 114	2	8	99	kitchen	sun_akcjzhbbjlbogpdi.tif	115192.870137	115193.128725	115193.819013	7.257858e-01	89	none	NaN	NaN
 114	2	9	75	kitchen	sun_acgtpgfybqjmzeyw.tif	115194.588506	115194.847092	115195.537378	7.591553e-01	65	none	NaN	NaN
 114	2	10	92	kitchen	sun_ahpczsiumwwocjkv.tif	115196.306875	115196.565465	115197.255634	7.591553e-01	82	none	NaN	NaN
 114	2	11	67	kitchen	sun_aarfiyshqohlwkmo.tif	115198.025246	115198.283838	115198.973988	7.508129e-01	57	37	115200.477116	1
 114	2	12	89	kitchen	sun_agzzivivdpnawacl.tif	115201.253442	115201.512033	115202.202215	7.091011e-01	79	none	NaN	NaN
 114	2	13	87	kitchen	sun_agorklincwxrdtga.tif	115202.971809	115203.230404	115203.920624	8.342366e-01	77	none	NaN	NaN
 114	2	14	70	kitchen	sun_abdxkyyxwfskuaqb.tif	115204.690181	115204.948773	115205.639055	7.007587e-01	60	none	NaN	NaN
 114	2	15	69	kitchen	sun_abdenxonkemggwsq.tif	115206.408548	115206.667139	115207.357329	6.507045e-01	59	none	NaN	NaN
 114	2	16	66	kitchen	sun_aapllqyqlykszopd.tif	115208.126916	115208.385506	115209.075760	7.341282e-01	56	37	115210.677230	0
 114	2	17	104	kitchen	sun_auticobqsbwgoppi.tif	115211.455210	115211.713801	115212.404070	8.008671e-01	94	none	NaN	NaN
 114	2	18	90	kitchen	sun_ahdycvpopffkzzsu.tif	115213.173579	115213.432166	115214.122303	6.840740e-01	80	none	NaN	NaN
 114	2	19	96	kitchen	sun_ajcbwwvdlsvjyzje.tif	115214.891955	115215.150541	115215.840693	6.924164e-01	86	none	NaN	NaN
 114	2	20	65	kitchen	sun_aamedkxepzlwuxes.tif	115216.610321	115216.868904	115217.559054	7.091011e-01	55	none	NaN	NaN
 114	2	21	106	kitchen	sun_awcpdzzznmweyyhv.tif	115218.328689	115218.587277	115219.277382	7.674977e-01	96	none	NaN	NaN
 114	2	22	83	kitchen	sun_aeqdocilnnpuvuhx.tif	115220.047055	115220.305649	115220.995778	8.425790e-01	73	none	NaN	NaN
 114	2	23	64	kitchen	sun_aadbddgrdsjugojn.tif	115221.765429	115222.024015	115222.714175	7.841824e-01	54	none	NaN	NaN
 114	2	24	61	kitchen	labelme_brsyyvweiuaazfr.tif	115223.483796	115223.742386	115224.432668	7.174435e-01	51	none	NaN	NaN
 114	2	25	107	kitchen	sun_axyyrmzcupyhlivc.tif	115225.202163	115225.460751	115226.150994	7.341282e-01	97	none	NaN	NaN
 114	2	26	91	kitchen	sun_ahljzhgcdpomplvg.tif	115226.920534	115227.179122	115227.869266	6.590469e-01	81	none	NaN	NaN
 114	2	27	94	kitchen	sun_ahywdevtimnqcsln.tif	115228.638901	115228.897491	115229.587633	7.508129e-01	84	none	NaN	NaN
 114	2	28	78	kitchen	sun_adgqasybjyktddhj.tif	115230.357268	115230.615854	115231.306051	7.257858e-01	68	none	NaN	NaN
 114	2	29	102	kitchen	sun_auaiucuqpdausiva.tif	115232.075640	115232.334229	115233.024323	6.924164e-01	92	none	NaN	NaN
 114	2	30	95	kitchen	sun_aixorpehvfykdynp.tif	115233.794014	115234.052593	115234.742820	6.673893e-01	85	none	NaN	NaN
 114	2	31	81	kitchen	sun_aehawpgmrlhlvcow.tif	115235.512376	115235.770965	115236.461088	7.007587e-01	71	39	115239.141180	1
 114	2	32	74	kitchen	sun_acfmftudsenhrfhy.tif	115239.916741	115240.175330	115240.865548	8.342366e-01	64	37	115242.573183	1
 114	2	33	72	kitchen	sun_abpwyqmlzafvklqo.tif	115243.345137	115243.603727	115244.293841	7.091011e-01	62	none	NaN	NaN
 114	2	34	109	kitchen	sun_aypmqwcualkenuoe.tif	115245.063507	115245.322091	115246.012215	7.174435e-01	99	37	115247.733182	1
 114	2	35	63	kitchen	labelme_rykdqxenmhulbdn.tif	115248.508620	115248.767173	115249.457509	7.758400e-01	53	none	NaN	NaN
 114	2	36	105	kitchen	sun_avszsnwsbuqfgzbn.tif	115250.226951	115250.485538	115251.175810	7.091011e-01	95	none	NaN	NaN
 114	2	37	98	kitchen	sun_akchetnepxlcxhsu.tif	115251.945321	115252.203914	115252.894012	8.092095e-01	88	none	NaN	NaN
 114	2	38	86	kitchen	sun_aggjlwcdjsjcaemh.tif	115253.663688	115253.922277	115254.612515	6.673893e-01	76	none	NaN	NaN
 114	2	39	68	kitchen	sun_aaxxjlsuzvqlgylf.tif	115255.382054	115255.640648	115256.330767	7.591553e-01	58	none	NaN	NaN
 114	2	40	71	kitchen	sun_abftihopvusyfakt.tif	115257.100431	115257.359016	115258.049119	8.425790e-01	61	none	NaN	NaN
 114	2	41	93	kitchen	sun_ahspylgoovwmwvgk.tif	115258.818795	115259.077381	115259.767574	7.674977e-01	83	39	115262.789182	1
 114	2	42	100	kitchen	sun_amjjdeyrggfqgmom.tif	115263.565161	115263.823750	115264.513846	8.175519e-01	90	none	NaN	NaN
 114	2	43	108	kitchen	sun_aymvwlarqodbwuoc.tif	115265.283530	115265.542118	115266.232403	6.757316e-01	98	none	NaN	NaN
 114	2	44	76	kitchen	sun_acwjdupvyjsugpay.tif	115267.001900	115267.260490	115267.950622	7.841824e-01	66	none	NaN	NaN
 114	2	45	97	kitchen	sun_ajkqhtgcbgpcwrwn.tif	115268.720271	115268.978856	115269.669032	7.758400e-01	87	none	NaN	NaN
 114	2	46	79	kitchen	sun_admlmbcdswaszruo.tif	115270.438643	115270.697229	115271.387501	8.258942e-01	69	none	NaN	NaN
 114	2	47	77	kitchen	sun_acxkpeoqbwcxfvip.tif	115272.157008	115272.415594	115273.105697	7.925248e-01	67	none	NaN	NaN
 114	2	48	103	kitchen	sun_aunzlwrbjumxhwdj.tif	115273.875374	115274.133984	115274.824109	7.841824e-01	93	none	NaN	NaN
 114	2	49	110	kitchen	sun_azmutvzbxypaceni.tif	115275.593743	115275.852330	115276.542621	8.008671e-01	100	none	NaN	NaN
 114	2	50	101	kitchen	sun_aqeaevwwwjoqhzvl.tif	115277.312107	115277.570707	115278.260812	7.174435e-01	91	none	NaN	NaN
 114	2	51	88	kitchen	sun_agubuxuukhzyzpdp.tif	115279.030486	115279.289070	115279.979338	8.175519e-01	78	none	NaN	NaN
 114	2	52	92	kitchen	sun_ahpczsiumwwocjkv.tif	115280.748848	115281.007441	115281.697679	6.924164e-01	82	39	115283.557164	1
 114	2	53	66	kitchen	sun_aapllqyqlykszopd.tif	115284.327393	115284.585988	115285.276206	8.092095e-01	56	none	NaN	NaN
 114	2	54	102	kitchen	sun_auaiucuqpdausiva.tif	115286.045766	115286.304352	115286.994568	7.925248e-01	92	37	115288.284944	1
 114	2	55	78	kitchen	sun_adgqasybjyktddhj.tif	115289.057077	115289.315668	115290.005918	7.925248e-01	68	none	NaN	NaN
 114	2	56	68	kitchen	sun_aaxxjlsuzvqlgylf.tif	115290.775451	115291.034033	115291.724168	6.757316e-01	58	none	NaN	NaN
 114	2	57	62	kitchen	labelme_kxvouciolcpqplr.tif	115292.493821	115292.752406	115293.442565	6.590469e-01	52	none	NaN	NaN
 114	2	58	100	kitchen	sun_amjjdeyrggfqgmom.tif	115294.212184	115294.470769	115295.160990	6.924164e-01	90	none	NaN	NaN
 114	2	59	74	kitchen	sun_acfmftudsenhrfhy.tif	115295.930555	115296.189143	115296.879372	7.174435e-01	64	none	NaN	NaN
 114	2	60	109	kitchen	sun_aypmqwcualkenuoe.tif	115297.648926	115297.907510	115298.597738	8.425790e-01	99	none	NaN	NaN
 114	2	61	105	kitchen	sun_avszsnwsbuqfgzbn.tif	115299.367294	115299.625883	115300.316143	7.591553e-01	95	none	NaN	NaN
 114	2	62	67	kitchen	sun_aarfiyshqohlwkmo.tif	115301.085661	115301.344250	115302.034478	6.840740e-01	57	none	NaN	NaN
 114	2	63	83	kitchen	sun_aeqdocilnnpuvuhx.tif	115302.804032	115303.062617	115303.752763	6.673893e-01	73	none	NaN	NaN
 114	2	64	90	kitchen	sun_ahdycvpopffkzzsu.tif	115304.522401	115304.780990	115305.471116	6.757316e-01	80	none	NaN	NaN
 114	2	65	75	kitchen	sun_acgtpgfybqjmzeyw.tif	115306.240760	115306.499356	115307.189622	7.758400e-01	65	none	NaN	NaN
 114	2	66	101	kitchen	sun_aqeaevwwwjoqhzvl.tif	115307.959133	115308.217724	115308.907875	7.758400e-01	91	none	NaN	NaN
 114	2	67	82	kitchen	sun_aenotlpyftoioydp.tif	115309.677503	115309.936093	115310.626368	6.840740e-01	72	37	115312.317195	0
 114	2	68	97	kitchen	sun_ajkqhtgcbgpcwrwn.tif	115313.089220	115313.347807	115314.038082	7.007587e-01	87	none	NaN	NaN
 114	2	69	77	kitchen	sun_acxkpeoqbwcxfvip.tif	115314.807589	115315.066171	115315.756307	7.341282e-01	67	none	NaN	NaN
 114	2	70	63	kitchen	labelme_rykdqxenmhulbdn.tif	115316.525957	115316.784541	115317.474779	7.424706e-01	53	none	NaN	NaN
 114	2	71	87	kitchen	sun_agorklincwxrdtga.tif	115318.244321	115318.502910	115319.193016	8.342366e-01	77	none	NaN	NaN
 114	2	72	84	kitchen	sun_aexklacwqwezaorf.tif	115319.962687	115320.221280	115320.911484	7.674977e-01	74	none	NaN	NaN
 114	2	73	94	kitchen	sun_ahywdevtimnqcsln.tif	115321.681059	115321.939660	115322.629948	6.924164e-01	84	37	115324.053220	1
 114	2	74	65	kitchen	sun_aamedkxepzlwuxes.tif	115324.825836	115325.084431	115325.774610	8.509213e-01	55	none	NaN	NaN
 114	2	75	96	kitchen	sun_ajcbwwvdlsvjyzje.tif	115326.544211	115326.802801	115327.493014	7.508129e-01	86	39	115328.324949	1
 114	2	76	106	kitchen	sun_awcpdzzznmweyyhv.tif	115329.096739	115329.355331	115330.045427	8.008671e-01	96	none	NaN	NaN
 114	2	77	80	kitchen	sun_aegoxogugdkwpmpj.tif	115330.815108	115331.073691	115331.763877	8.258942e-01	70	37	115333.189184	1
 114	2	78	95	kitchen	sun_aixorpehvfykdynp.tif	115333.959891	115334.218480	115334.908604	7.424706e-01	85	none	NaN	NaN
 114	2	79	81	kitchen	sun_aehawpgmrlhlvcow.tif	115335.678259	115335.936845	115336.627012	8.175519e-01	71	none	NaN	NaN
 114	2	80	76	kitchen	sun_acwjdupvyjsugpay.tif	115337.396628	115337.655216	115338.345334	6.590469e-01	66	39	115340.028950	1
 114	2	81	61	kitchen	labelme_brsyyvweiuaazfr.tif	115340.799996	115341.058588	115341.748876	8.092095e-01	51	none	NaN	NaN
 114	2	82	98	kitchen	sun_akchetnepxlcxhsu.tif	115342.518366	115342.776955	115343.467197	8.008671e-01	88	none	NaN	NaN
 114	2	83	91	kitchen	sun_ahljzhgcdpomplvg.tif	115344.236736	115344.495321	115345.185421	6.507045e-01	81	none	NaN	NaN
 114	2	84	72	kitchen	sun_abpwyqmlzafvklqo.tif	115345.955102	115346.213692	115346.903890	6.590469e-01	62	none	NaN	NaN
 114	2	85	107	kitchen	sun_axyyrmzcupyhlivc.tif	115347.673475	115347.932068	115348.622329	7.424706e-01	97	39	115349.700946	1
 114	2	86	104	kitchen	sun_auticobqsbwgoppi.tif	115350.476245	115350.734833	115351.425063	6.840740e-01	94	none	NaN	NaN
 114	2	87	108	kitchen	sun_aymvwlarqodbwuoc.tif	115352.194618	115352.453210	115353.143399	7.257858e-01	98	none	NaN	NaN
 114	2	88	93	kitchen	sun_ahspylgoovwmwvgk.tif	115353.912987	115354.171575	115354.861769	8.175519e-01	83	none	NaN	NaN
 114	2	89	86	kitchen	sun_aggjlwcdjsjcaemh.tif	115355.631355	115355.889944	115356.580136	8.175519e-01	76	none	NaN	NaN
 114	2	90	103	kitchen	sun_aunzlwrbjumxhwdj.tif	115357.349727	115357.608316	115358.298578	6.507045e-01	93	none	NaN	NaN
 114	2	91	73	kitchen	sun_abrcnpqqhmjwekyf.tif	115359.068094	115359.326682	115360.016993	7.341282e-01	63	none	NaN	NaN
 114	2	92	89	kitchen	sun_agzzivivdpnawacl.tif	115360.786458	115361.045055	115361.735158	7.674977e-01	79	none	NaN	NaN
 114	2	93	71	kitchen	sun_abftihopvusyfakt.tif	115362.504835	115362.763416	115363.453653	6.757316e-01	61	none	NaN	NaN
 114	2	94	85	kitchen	sun_afuyedyxivkhecmu.tif	115364.223200	115364.481789	115365.171911	8.509213e-01	75	none	NaN	NaN
 114	2	95	64	kitchen	sun_aadbddgrdsjugojn.tif	115365.941568	115366.200157	115366.890259	6.673893e-01	54	none	NaN	NaN
 114	2	96	110	kitchen	sun_azmutvzbxypaceni.tif	115367.659937	115367.918525	115368.608739	8.425790e-01	100	none	NaN	NaN
 114	2	97	70	kitchen	sun_abdxkyyxwfskuaqb.tif	115369.378303	115369.636897	115370.327023	8.342366e-01	60	none	NaN	NaN
 114	2	98	99	kitchen	sun_akcjzhbbjlbogpdi.tif	115371.096681	115371.355264	115372.045361	7.841824e-01	89	none	NaN	NaN
 114	2	99	79	kitchen	sun_admlmbcdswaszruo.tif	115372.815043	115373.073625	115373.763810	8.092095e-01	69	none	NaN	NaN
 114	2	100	69	kitchen	sun_abdenxonkemggwsq.tif	115374.533409	115374.792001	115375.482220	7.257858e-01	59	none	NaN	NaN
 114	3	1	27	bathroom	sun_ahcvzmoyaycdoftf.tif	115387.104196	115387.362786	115388.178223	8.258942e-01	17	none	NaN	NaN
 114	3	2	21	bathroom	sun_aggnnqpdorgxpvce.tif	115388.947683	115389.206278	115390.021606	6.924164e-01	11	39	115390.997180	1
 114	3	3	19	bathroom	sun_aclfzgynxzxlbepz.tif	115391.775489	115392.034077	115392.849435	8.258942e-01	9	none	NaN	NaN
 114	3	4	46	bathroom	sun_apmqjbnwghzuhhzh.tif	115393.618983	115393.877573	115394.692883	7.091011e-01	36	none	NaN	NaN
 114	3	5	17	bathroom	sun_acegryoqftbzowsg.tif	115395.462476	115395.721063	115396.536374	8.425790e-01	7	none	NaN	NaN
 114	3	6	34	bathroom	sun_alkosphxlxwjwgjd.tif	115397.305969	115397.564558	115398.379995	7.257858e-01	24	none	NaN	NaN
 114	3	7	18	bathroom	sun_acgyywnybuveqsro.tif	115399.149461	115399.408049	115400.223497	7.091011e-01	8	none	NaN	NaN
 114	3	8	38	bathroom	sun_anhioqovhscjqqwb.tif	115400.992955	115401.251543	115402.066872	6.757316e-01	28	none	NaN	NaN
 114	3	9	50	bathroom	sun_aspsyogrekjtfozg.tif	115402.836448	115403.095035	115403.910262	8.425790e-01	40	none	NaN	NaN
 114	3	10	29	bathroom	sun_ahqjwnzgolcaoidx.tif	115404.671349	115404.921726	115405.745308	7.091011e-01	19	37	115406.613259	1
 114	3	11	53	bathroom	sun_ausgutylgojavyoq.tif	115407.390883	115407.649551	115408.464910	6.590469e-01	43	none	NaN	NaN
 114	3	12	59	bathroom	sun_axyrejkiiaqiurjk.tif	115409.234451	115409.493041	115410.308392	7.841824e-01	49	none	NaN	NaN
 114	3	13	24	bathroom	sun_agrwbmhcpmfuwmsg.tif	115411.077943	115411.336533	115412.151827	8.008671e-01	14	none	NaN	NaN
 114	3	14	58	bathroom	sun_axxbkopsgyouuebh.tif	115412.921433	115413.180025	115413.995396	7.508129e-01	48	none	NaN	NaN
 114	3	15	31	bathroom	sun_akiytfaagpdsphgz.tif	115414.764929	115415.023516	115415.838869	6.840740e-01	21	none	NaN	NaN
 114	3	16	13	bathroom	sun_aavhrsfjbserjtht.tif	115416.608422	115416.867008	115417.682359	7.591553e-01	3	none	NaN	NaN
 114	3	17	54	bathroom	sun_auzqhkafidnkrwmo.tif	115418.451913	115418.710510	115419.525763	8.342366e-01	44	37	115420.317162	1
 114	3	18	37	bathroom	sun_amzlamotzwfkwjco.tif	115421.087854	115421.346442	115422.161671	7.341282e-01	27	none	NaN	NaN
 114	3	19	49	bathroom	sun_asfwthctfqerjvxr.tif	115422.931347	115423.189956	115424.005300	7.174435e-01	39	none	NaN	NaN
 114	3	20	45	bathroom	sun_apkxzenqapsujocq.tif	115424.774840	115425.033428	115425.848853	6.757316e-01	35	none	NaN	NaN
 114	3	21	39	bathroom	sun_anryaplzeujmzfkd.tif	115426.618336	115426.876926	115427.692177	6.507045e-01	29	none	NaN	NaN
 114	3	22	51	bathroom	sun_atstyziqcmkahyxk.tif	115428.461825	115428.720416	115429.535846	7.674977e-01	41	none	NaN	NaN
 114	3	23	30	bathroom	sun_ajlawzvmubibwbpy.tif	115430.305318	115430.563906	115431.379201	6.924164e-01	20	none	NaN	NaN
 114	3	24	33	bathroom	sun_aljolscmmzydegqp.tif	115432.148813	115432.407400	115433.222792	7.841824e-01	23	none	NaN	NaN
 114	3	25	20	bathroom	sun_afcoljnjfoxjtgja.tif	115433.992298	115434.250889	115435.066268	6.757316e-01	10	none	NaN	NaN
 114	3	26	60	bathroom	sun_azqyogdvyhahyram.tif	115435.835798	115436.094383	115436.909724	8.092095e-01	50	none	NaN	NaN
 114	3	27	22	bathroom	sun_agguqiubmwhqqunb.tif	115437.679288	115437.937875	115438.753123	7.674977e-01	12	39	115441.749144	1
 114	3	28	55	bathroom	sun_avhrdrntsqrjzccq.tif	115442.525754	115442.784334	115443.599778	7.174435e-01	45	none	NaN	NaN
 114	3	29	52	bathroom	sun_aunuadmjocsddsrl.tif	115444.369246	115444.627839	115445.443262	7.007587e-01	42	none	NaN	NaN
 114	3	30	14	bathroom	sun_abapwbhyhkfixyex.tif	115446.212741	115446.471334	115447.286722	7.925248e-01	4	none	NaN	NaN
 114	3	31	35	bathroom	sun_alotolagknyrgtsk.tif	115448.056234	115448.314822	115449.130229	7.758400e-01	25	39	115450.373214	1
 114	3	32	11	bathroom	labelme_sfxiulhjbhlyiyt.tif	115451.150967	115451.409553	115452.224899	7.341282e-01	1	none	NaN	NaN
 114	3	33	48	bathroom	sun_aqrpegblszgcoujh.tif	115452.994461	115453.253048	115454.068427	8.258942e-01	38	none	NaN	NaN
 114	3	34	28	bathroom	sun_ahijqszoswveeyji.tif	115454.837953	115455.096541	115455.911789	7.508129e-01	18	39	115458.405250	1
 114	3	35	57	bathroom	sun_axldvoqbuvuggfmq.tif	115459.175584	115459.434171	115460.249487	7.925248e-01	47	none	NaN	NaN
 114	3	36	26	bathroom	sun_ahaulkltgpkeeemi.tif	115461.019076	115461.277661	115462.092932	7.257858e-01	16	none	NaN	NaN
 114	3	37	23	bathroom	sun_aghyqhbptboemmoq.tif	115462.862568	115463.121153	115463.936405	8.175519e-01	13	none	NaN	NaN
 114	3	38	47	bathroom	sun_apynckhmoftszqoq.tif	115464.706058	115464.964649	115465.779889	7.424706e-01	37	none	NaN	NaN
 114	3	39	42	bathroom	sun_apeeialkgkuxddgh.tif	115466.549550	115466.808140	115467.623383	7.674977e-01	32	37	115468.924941	0
 114	3	40	25	bathroom	sun_agyqfjcfkdcydepw.tif	115469.702672	115469.961264	115470.776496	6.840740e-01	15	none	NaN	NaN
 114	3	41	32	bathroom	sun_aleqenyvunhactkl.tif	115471.546168	115471.804759	115472.620061	7.508129e-01	22	39	115473.765110	1
 114	3	42	12	bathroom	sun_aapitsgbtktqubfy.tif	115474.540799	115474.799386	115475.614788	8.008671e-01	2	none	NaN	NaN
 114	3	43	36	bathroom	sun_ambriybtogmepttm.tif	115476.384295	115476.642885	115477.458204	7.007587e-01	26	none	NaN	NaN
 114	3	44	44	bathroom	sun_apkruvsevgegsdwp.tif	115478.227785	115478.486372	115479.301702	8.509213e-01	34	none	NaN	NaN
 114	3	45	56	bathroom	sun_awnqiikzaispgmwo.tif	115480.071278	115480.329868	115481.145119	6.757316e-01	46	none	NaN	NaN
 114	3	46	15	bathroom	sun_abjtwfukuwddzted.tif	115481.906427	115482.165016	115482.980241	8.425790e-01	5	none	NaN	NaN
 114	3	47	16	bathroom	sun_acduarbnmmoglmiv.tif	115483.749922	115484.008512	115484.823780	6.924164e-01	6	none	NaN	NaN
 114	3	48	43	bathroom	sun_apjevzvycyhuqghb.tif	115485.593416	115485.852001	115486.667271	7.758400e-01	33	none	NaN	NaN
 114	3	49	40	bathroom	sun_aofnryafpsjimzsb.tif	115487.436902	115487.695494	115488.510735	6.673893e-01	30	none	NaN	NaN
 114	3	50	41	bathroom	sun_aoybiabnpadelefl.tif	115489.280395	115489.538985	115490.354327	6.673893e-01	31	none	NaN	NaN
 114	3	51	27	bathroom	sun_ahcvzmoyaycdoftf.tif	115491.123891	115491.382480	115492.197900	8.342366e-01	17	37	115494.021119	1
 114	3	52	36	bathroom	sun_ambriybtogmepttm.tif	115494.794194	115495.052786	115495.868174	8.342366e-01	26	none	NaN	NaN
 114	3	53	37	bathroom	sun_amzlamotzwfkwjco.tif	115496.637687	115496.896273	115497.711518	8.092095e-01	27	none	NaN	NaN
 114	3	54	14	bathroom	sun_abapwbhyhkfixyex.tif	115498.481179	115498.739771	115499.555152	8.008671e-01	4	none	NaN	NaN
 114	3	55	40	bathroom	sun_aofnryafpsjimzsb.tif	115500.324675	115500.583260	115501.398614	7.174435e-01	30	none	NaN	NaN
 114	3	56	41	bathroom	sun_aoybiabnpadelefl.tif	115502.168165	115502.426755	115503.242087	6.590469e-01	31	none	NaN	NaN
 114	3	57	39	bathroom	sun_anryaplzeujmzfkd.tif	115504.011657	115504.270250	115505.085533	6.840740e-01	29	none	NaN	NaN
 114	3	58	43	bathroom	sun_apjevzvycyhuqghb.tif	115505.855149	115506.113735	115506.929009	6.924164e-01	33	none	NaN	NaN
 114	3	59	60	bathroom	sun_azqyogdvyhahyram.tif	115507.698643	115507.957233	115508.772577	7.007587e-01	50	39	115510.245167	1
 114	3	60	38	bathroom	sun_anhioqovhscjqqwb.tif	115511.018595	115511.277183	115512.092594	7.257858e-01	28	none	NaN	NaN
 114	3	61	12	bathroom	sun_aapitsgbtktqubfy.tif	115512.862095	115513.120679	115513.936123	7.424706e-01	2	none	NaN	NaN
 114	3	62	11	bathroom	labelme_sfxiulhjbhlyiyt.tif	115514.705581	115514.964170	115515.779571	7.758400e-01	1	none	NaN	NaN
 114	3	63	30	bathroom	sun_ajlawzvmubibwbpy.tif	115516.549075	115516.807661	115517.623023	8.175519e-01	20	none	NaN	NaN
 114	3	64	28	bathroom	sun_ahijqszoswveeyji.tif	115518.392562	115518.651157	115519.466590	6.507045e-01	18	none	NaN	NaN
 114	3	65	48	bathroom	sun_aqrpegblszgcoujh.tif	115520.236055	115520.494648	115521.309927	7.508129e-01	38	none	NaN	NaN
 114	3	66	25	bathroom	sun_agyqfjcfkdcydepw.tif	115522.079553	115522.338138	115523.153451	7.424706e-01	15	none	NaN	NaN
 114	3	67	23	bathroom	sun_aghyqhbptboemmoq.tif	115523.923048	115524.181634	115524.996960	6.924164e-01	13	none	NaN	NaN
 114	3	68	16	bathroom	sun_acduarbnmmoglmiv.tif	115525.766537	115526.025126	115526.840451	7.341282e-01	6	none	NaN	NaN
 114	3	69	58	bathroom	sun_axxbkopsgyouuebh.tif	115527.610029	115527.868617	115528.683995	8.258942e-01	48	none	NaN	NaN
 114	3	70	21	bathroom	sun_aggnnqpdorgxpvce.tif	115529.453525	115529.712116	115530.527465	8.175519e-01	11	none	NaN	NaN
 114	3	71	26	bathroom	sun_ahaulkltgpkeeemi.tif	115531.297020	115531.555608	115532.370879	8.092095e-01	16	none	NaN	NaN
 114	3	72	34	bathroom	sun_alkosphxlxwjwgjd.tif	115533.140511	115533.399098	115534.214456	6.507045e-01	24	none	NaN	NaN
 114	3	73	52	bathroom	sun_aunuadmjocsddsrl.tif	115534.984003	115535.242592	115536.057993	6.673893e-01	42	none	NaN	NaN
 114	3	74	15	bathroom	sun_abjtwfukuwddzted.tif	115536.827497	115537.086084	115537.901396	7.591553e-01	5	none	NaN	NaN
 114	3	75	13	bathroom	sun_aavhrsfjbserjtht.tif	115538.670983	115538.929576	115539.744933	7.674977e-01	3	none	NaN	NaN
 114	3	76	46	bathroom	sun_apmqjbnwghzuhhzh.tif	115540.514480	115540.773068	115541.588331	8.425790e-01	36	none	NaN	NaN
 114	3	77	59	bathroom	sun_axyrejkiiaqiurjk.tif	115542.357971	115542.616562	115543.431838	7.925248e-01	49	none	NaN	NaN
 114	3	78	42	bathroom	sun_apeeialkgkuxddgh.tif	115544.201464	115544.460062	115545.275321	7.841824e-01	32	none	NaN	NaN
 114	3	79	24	bathroom	sun_agrwbmhcpmfuwmsg.tif	115546.044957	115546.303547	115547.118956	8.008671e-01	14	none	NaN	NaN
 114	3	80	35	bathroom	sun_alotolagknyrgtsk.tif	115547.888447	115548.147042	115548.962305	7.174435e-01	25	37	115550.645159	1
 114	3	81	57	bathroom	sun_axldvoqbuvuggfmq.tif	115551.416944	115551.675533	115552.490812	8.175519e-01	47	none	NaN	NaN
 114	3	82	32	bathroom	sun_aleqenyvunhactkl.tif	115553.260439	115553.519028	115554.334326	7.424706e-01	22	none	NaN	NaN
 114	3	83	55	bathroom	sun_avhrdrntsqrjzccq.tif	115555.103928	115555.362520	115556.177818	7.925248e-01	45	37	115556.836927	1
 114	3	84	22	bathroom	sun_agguqiubmwhqqunb.tif	115557.614752	115557.873336	115558.688775	6.590469e-01	12	none	NaN	NaN
 114	3	85	45	bathroom	sun_apkxzenqapsujocq.tif	115559.458249	115559.716831	115560.532180	7.341282e-01	35	none	NaN	NaN
 114	3	86	20	bathroom	sun_afcoljnjfoxjtgja.tif	115561.301733	115561.560322	115562.375571	7.841824e-01	10	37	115563.173110	1
 114	3	87	19	bathroom	sun_aclfzgynxzxlbepz.tif	115563.946017	115564.204613	115565.019874	7.591553e-01	9	none	NaN	NaN
 114	3	88	31	bathroom	sun_akiytfaagpdsphgz.tif	115565.789514	115566.048103	115566.863498	7.591553e-01	21	none	NaN	NaN
 114	3	89	47	bathroom	sun_apynckhmoftszqoq.tif	115567.633009	115567.891599	115568.706973	8.509213e-01	37	none	NaN	NaN
 114	3	90	17	bathroom	sun_acegryoqftbzowsg.tif	115569.476497	115569.735087	115570.550422	6.840740e-01	7	none	NaN	NaN
 114	3	91	33	bathroom	sun_aljolscmmzydegqp.tif	115571.319992	115571.578580	115572.393907	7.257858e-01	23	none	NaN	NaN
 114	3	92	51	bathroom	sun_atstyziqcmkahyxk.tif	115573.163483	115573.422072	115574.237491	6.673893e-01	41	37	115574.973215	1
 114	3	93	54	bathroom	sun_auzqhkafidnkrwmo.tif	115575.749377	115576.007967	115576.823310	8.175519e-01	44	none	NaN	NaN
 114	3	94	18	bathroom	sun_acgyywnybuveqsro.tif	115577.592870	115577.851463	115578.666897	7.007587e-01	8	none	NaN	NaN
 114	3	95	50	bathroom	sun_aspsyogrekjtfozg.tif	115579.436361	115579.694968	115580.510328	7.091011e-01	40	none	NaN	NaN
 114	3	96	53	bathroom	sun_ausgutylgojavyoq.tif	115581.279860	115581.538449	115582.353883	7.758400e-01	43	none	NaN	NaN
 114	3	97	56	bathroom	sun_awnqiikzaispgmwo.tif	115583.123350	115583.381939	115584.197261	8.092095e-01	46	37	115585.061134	1
 114	3	98	49	bathroom	sun_asfwthctfqerjvxr.tif	115585.834365	115586.092956	115586.908251	7.591553e-01	39	none	NaN	NaN
 114	3	99	44	bathroom	sun_apkruvsevgegsdwp.tif	115587.677859	115587.936446	115588.751864	6.590469e-01	34	none	NaN	NaN
 114	3	100	29	bathroom	sun_ahqjwnzgolcaoidx.tif	115589.521354	115589.779940	115590.595290	8.342366e-01	19	none	NaN	NaN
 114	4	1	68	kitchen	sun_aaxxjlsuzvqlgylf.tif	115596.995422	115597.254011	115597.952591	7.257858e-01	58	none	NaN	NaN
 114	4	2	77	kitchen	sun_acxkpeoqbwcxfvip.tif	115598.722135	115598.980723	115599.679239	7.007587e-01	67	none	NaN	NaN
 114	4	3	79	kitchen	sun_admlmbcdswaszruo.tif	115600.448847	115600.707456	115601.406032	8.175519e-01	69	none	NaN	NaN
 114	4	4	86	kitchen	sun_aggjlwcdjsjcaemh.tif	115602.175554	115602.434151	115603.132589	7.091011e-01	76	none	NaN	NaN
 114	4	5	94	kitchen	sun_ahywdevtimnqcsln.tif	115603.902264	115604.160853	115604.859452	7.007587e-01	84	none	NaN	NaN
 114	4	6	95	kitchen	sun_aixorpehvfykdynp.tif	115605.628972	115605.887560	115606.586125	6.757316e-01	85	none	NaN	NaN
 114	4	7	75	kitchen	sun_acgtpgfybqjmzeyw.tif	115607.355687	115607.614277	115608.312915	7.508129e-01	65	none	NaN	NaN
 114	4	8	88	kitchen	sun_agubuxuukhzyzpdp.tif	115609.082392	115609.340981	115610.039524	6.590469e-01	78	none	NaN	NaN
 114	4	9	85	kitchen	sun_afuyedyxivkhecmu.tif	115610.809103	115611.067697	115611.766294	7.841824e-01	75	37	115612.885302	1
 114	4	10	104	kitchen	sun_auticobqsbwgoppi.tif	115613.661927	115613.920519	115614.618963	7.591553e-01	94	39	115615.645253	1
 114	4	11	72	kitchen	sun_abpwyqmlzafvklqo.tif	115616.423001	115616.681587	115617.380294	7.925248e-01	62	none	NaN	NaN
 114	4	12	66	kitchen	sun_aapllqyqlykszopd.tif	115618.149705	115618.408292	115619.106811	7.257858e-01	56	none	NaN	NaN
 114	4	13	69	kitchen	sun_abdenxonkemggwsq.tif	115619.876419	115620.135006	115620.833594	8.092095e-01	59	39	115622.165154	1
 114	4	14	108	kitchen	sun_aymvwlarqodbwuoc.tif	115622.937784	115623.196375	115623.894850	6.757316e-01	98	none	NaN	NaN
 114	4	15	105	kitchen	sun_avszsnwsbuqfgzbn.tif	115624.664492	115624.923084	115625.621606	7.508129e-01	95	none	NaN	NaN
 114	4	16	78	kitchen	sun_adgqasybjyktddhj.tif	115626.391201	115626.649797	115627.348419	8.008671e-01	68	none	NaN	NaN
 114	4	17	101	kitchen	sun_aqeaevwwwjoqhzvl.tif	115628.117913	115628.376504	115629.075140	8.509213e-01	91	39	115632.181226	1
 114	4	18	99	kitchen	sun_akcjzhbbjlbogpdi.tif	115632.956039	115633.214627	115633.913076	6.840740e-01	89	none	NaN	NaN
 114	4	19	90	kitchen	sun_ahdycvpopffkzzsu.tif	115634.682748	115634.941338	115635.639862	7.424706e-01	80	none	NaN	NaN
 114	4	20	70	kitchen	sun_abdxkyyxwfskuaqb.tif	115636.409458	115636.668047	115637.366513	8.342366e-01	60	none	NaN	NaN
 114	4	21	81	kitchen	sun_aehawpgmrlhlvcow.tif	115638.136170	115638.394756	115639.093359	8.008671e-01	71	37	115639.789357	0
 114	4	22	106	kitchen	sun_awcpdzzznmweyyhv.tif	115640.563575	115640.822166	115641.520666	8.092095e-01	96	none	NaN	NaN
 114	4	23	93	kitchen	sun_ahspylgoovwmwvgk.tif	115642.290284	115642.548875	115643.247370	6.507045e-01	83	none	NaN	NaN
 114	4	24	97	kitchen	sun_ajkqhtgcbgpcwrwn.tif	115644.016998	115644.275582	115644.974169	7.174435e-01	87	none	NaN	NaN
 114	4	25	91	kitchen	sun_ahljzhgcdpomplvg.tif	115645.743706	115646.002297	115646.700756	7.257858e-01	81	none	NaN	NaN
 114	4	26	96	kitchen	sun_ajcbwwvdlsvjyzje.tif	115647.470416	115647.729004	115648.427494	8.092095e-01	86	none	NaN	NaN
 114	4	27	62	kitchen	labelme_kxvouciolcpqplr.tif	115649.197125	115649.455715	115650.154158	7.758400e-01	52	none	NaN	NaN
 114	4	28	109	kitchen	sun_aypmqwcualkenuoe.tif	115650.923835	115651.182427	115651.880934	7.758400e-01	99	37	115652.605159	1
 114	4	29	76	kitchen	sun_acwjdupvyjsugpay.tif	115653.376266	115653.634860	115654.333414	8.092095e-01	66	none	NaN	NaN
 114	4	30	87	kitchen	sun_agorklincwxrdtga.tif	115655.102980	115655.361564	115656.060038	8.425790e-01	77	none	NaN	NaN
 114	4	31	102	kitchen	sun_auaiucuqpdausiva.tif	115656.829686	115657.088274	115657.786899	8.342366e-01	92	none	NaN	NaN
 114	4	32	110	kitchen	sun_azmutvzbxypaceni.tif	115658.556393	115658.814985	115659.513432	7.674977e-01	100	39	115662.565185	1
 114	4	33	98	kitchen	sun_akchetnepxlcxhsu.tif	115663.336132	115663.594718	115664.293281	6.673893e-01	88	none	NaN	NaN
 114	4	34	100	kitchen	sun_amjjdeyrggfqgmom.tif	115665.062840	115665.321431	115666.019884	7.341282e-01	90	37	115666.693186	1
 114	4	35	107	kitchen	sun_axyyrmzcupyhlivc.tif	115667.465217	115667.723811	115668.422292	7.674977e-01	97	none	NaN	NaN
 114	4	36	65	kitchen	sun_aamedkxepzlwuxes.tif	115669.191929	115669.450513	115670.149116	8.175519e-01	55	none	NaN	NaN
 114	4	37	64	kitchen	sun_aadbddgrdsjugojn.tif	115670.918641	115671.177233	115671.875766	7.341282e-01	54	37	115672.460911	1
 114	4	38	89	kitchen	sun_agzzivivdpnawacl.tif	115673.237606	115673.496194	115674.194659	8.425790e-01	79	none	NaN	NaN
 114	4	39	103	kitchen	sun_aunzlwrbjumxhwdj.tif	115674.964314	115675.222901	115675.921353	6.840740e-01	93	none	NaN	NaN
 114	4	40	71	kitchen	sun_abftihopvusyfakt.tif	115676.691023	115676.949616	115677.648230	7.424706e-01	61	none	NaN	NaN
 114	4	41	83	kitchen	sun_aeqdocilnnpuvuhx.tif	115678.417738	115678.676323	115679.374783	6.507045e-01	73	none	NaN	NaN
 114	4	42	73	kitchen	sun_abrcnpqqhmjwekyf.tif	115680.144445	115680.403032	115681.101663	6.507045e-01	63	none	NaN	NaN
 114	4	43	84	kitchen	sun_aexklacwqwezaorf.tif	115681.871156	115682.129739	115682.828364	7.174435e-01	74	none	NaN	NaN
 114	4	44	92	kitchen	sun_ahpczsiumwwocjkv.tif	115683.597867	115683.856458	115684.555075	7.674977e-01	82	none	NaN	NaN
 114	4	45	82	kitchen	sun_aenotlpyftoioydp.tif	115685.324574	115685.583166	115686.281619	8.175519e-01	72	37	115689.372903	0
 114	4	46	80	kitchen	sun_aegoxogugdkwpmpj.tif	115690.146014	115690.404611	115691.103143	6.924164e-01	70	none	NaN	NaN
 114	4	47	61	kitchen	labelme_brsyyvweiuaazfr.tif	115691.872730	115692.131317	115692.829871	7.091011e-01	51	none	NaN	NaN
 114	4	48	63	kitchen	labelme_rykdqxenmhulbdn.tif	115693.599441	115693.858024	115694.556550	8.175519e-01	53	37	115695.893075	1
 114	4	49	67	kitchen	sun_aarfiyshqohlwkmo.tif	115696.669144	115696.927733	115697.626189	7.007587e-01	57	none	NaN	NaN
 114	4	50	74	kitchen	sun_acfmftudsenhrfhy.tif	115698.395854	115698.654442	115699.353064	7.424706e-01	64	none	NaN	NaN
 114	4	51	91	kitchen	sun_ahljzhgcdpomplvg.tif	115700.122563	115700.381160	115701.079723	7.925248e-01	81	none	NaN	NaN
 114	4	52	85	kitchen	sun_afuyedyxivkhecmu.tif	115701.849272	115702.107868	115702.806313	8.258942e-01	75	none	NaN	NaN
 114	4	53	78	kitchen	sun_adgqasybjyktddhj.tif	115703.575986	115703.834575	115704.533143	6.757316e-01	68	none	NaN	NaN
 114	4	54	92	kitchen	sun_ahpczsiumwwocjkv.tif	115705.302696	115705.561286	115706.259843	6.590469e-01	82	none	NaN	NaN
 114	4	55	87	kitchen	sun_agorklincwxrdtga.tif	115707.029406	115707.287996	115707.986448	8.258942e-01	77	none	NaN	NaN
 114	4	56	102	kitchen	sun_auaiucuqpdausiva.tif	115708.756118	115709.014708	115709.713145	7.257858e-01	92	none	NaN	NaN
 114	4	57	66	kitchen	sun_aapllqyqlykszopd.tif	115710.482828	115710.741417	115711.439858	8.008671e-01	56	37	115712.573142	0
 114	4	58	106	kitchen	sun_awcpdzzznmweyyhv.tif	115713.343992	115713.602583	115714.301171	7.091011e-01	96	none	NaN	NaN
 114	4	59	64	kitchen	sun_aadbddgrdsjugojn.tif	115715.070703	115715.329291	115716.027727	7.091011e-01	54	none	NaN	NaN
 114	4	60	80	kitchen	sun_aegoxogugdkwpmpj.tif	115716.797418	115717.055999	115717.754629	6.673893e-01	70	none	NaN	NaN
 114	4	61	73	kitchen	sun_abrcnpqqhmjwekyf.tif	115718.524084	115718.782713	115719.481168	7.674977e-01	63	none	NaN	NaN
 114	4	62	105	kitchen	sun_avszsnwsbuqfgzbn.tif	115720.250836	115720.509428	115721.208033	7.424706e-01	95	none	NaN	NaN
 114	4	63	62	kitchen	labelme_kxvouciolcpqplr.tif	115721.977542	115722.236133	115722.934577	7.174435e-01	52	none	NaN	NaN
 114	4	64	89	kitchen	sun_agzzivivdpnawacl.tif	115723.704257	115723.962847	115724.661359	6.673893e-01	79	none	NaN	NaN
 114	4	65	103	kitchen	sun_aunzlwrbjumxhwdj.tif	115725.430968	115725.689556	115726.388099	8.258942e-01	93	39	115727.500920	0
 114	4	66	108	kitchen	sun_aymvwlarqodbwuoc.tif	115728.275452	115728.534029	115729.232531	8.425790e-01	98	none	NaN	NaN
 114	4	67	72	kitchen	sun_abpwyqmlzafvklqo.tif	115730.002159	115730.260747	115730.959267	7.591553e-01	62	none	NaN	NaN
 114	4	68	70	kitchen	sun_abdxkyyxwfskuaqb.tif	115731.728869	115731.987461	115732.685987	6.924164e-01	60	none	NaN	NaN
 114	4	69	68	kitchen	sun_aaxxjlsuzvqlgylf.tif	115733.455580	115733.714172	115734.412759	6.757316e-01	58	37	115735.244933	1
 114	4	70	110	kitchen	sun_azmutvzbxypaceni.tif	115736.016449	115736.275040	115736.973560	7.508129e-01	100	none	NaN	NaN
 114	4	71	107	kitchen	sun_axyyrmzcupyhlivc.tif	115737.743159	115738.001758	115738.700373	6.924164e-01	97	none	NaN	NaN
 114	4	72	97	kitchen	sun_ajkqhtgcbgpcwrwn.tif	115739.469874	115739.728461	115740.427050	7.341282e-01	87	none	NaN	NaN
 114	4	73	65	kitchen	sun_aamedkxepzlwuxes.tif	115741.196578	115741.455175	115742.153604	7.591553e-01	55	39	115743.389069	1
 114	4	74	99	kitchen	sun_akcjzhbbjlbogpdi.tif	115744.166194	115744.424776	115745.123323	6.840740e-01	89	none	NaN	NaN
 114	4	75	94	kitchen	sun_ahywdevtimnqcsln.tif	115745.892899	115746.151487	115746.850023	7.841824e-01	84	none	NaN	NaN
 114	4	76	83	kitchen	sun_aeqdocilnnpuvuhx.tif	115747.619610	115747.878199	115748.576681	8.342366e-01	73	none	NaN	NaN
 114	4	77	86	kitchen	sun_aggjlwcdjsjcaemh.tif	115749.346321	115749.604906	115750.303517	6.673893e-01	76	none	NaN	NaN
 114	4	78	95	kitchen	sun_aixorpehvfykdynp.tif	115751.073030	115751.331619	115752.030114	7.591553e-01	85	none	NaN	NaN
 114	4	79	74	kitchen	sun_acfmftudsenhrfhy.tif	115752.799740	115753.058329	115753.756783	7.591553e-01	64	none	NaN	NaN
 114	4	80	77	kitchen	sun_acxkpeoqbwcxfvip.tif	115754.526452	115754.785037	115755.483647	7.758400e-01	67	none	NaN	NaN
 114	4	81	79	kitchen	sun_admlmbcdswaszruo.tif	115756.253162	115756.511754	115757.210261	7.925248e-01	69	none	NaN	NaN
 114	4	82	84	kitchen	sun_aexklacwqwezaorf.tif	115757.979869	115758.238464	115758.937069	8.509213e-01	74	none	NaN	NaN
 114	4	83	88	kitchen	sun_agubuxuukhzyzpdp.tif	115759.706579	115759.965172	115760.663708	7.925248e-01	78	none	NaN	NaN
 114	4	84	109	kitchen	sun_aypmqwcualkenuoe.tif	115761.433292	115761.691878	115762.390340	8.425790e-01	99	none	NaN	NaN
 114	4	85	63	kitchen	labelme_rykdqxenmhulbdn.tif	115763.160005	115763.418593	115764.117153	6.590469e-01	53	none	NaN	NaN
 114	4	86	101	kitchen	sun_aqeaevwwwjoqhzvl.tif	115764.886713	115765.145302	115765.843872	8.342366e-01	91	none	NaN	NaN
 114	4	87	93	kitchen	sun_ahspylgoovwmwvgk.tif	115766.613423	115766.872012	115767.570622	7.841824e-01	83	none	NaN	NaN
 114	4	88	81	kitchen	sun_aehawpgmrlhlvcow.tif	115768.340133	115768.598722	115769.297157	7.341282e-01	71	none	NaN	NaN
 114	4	89	90	kitchen	sun_ahdycvpopffkzzsu.tif	115770.066843	115770.325434	115771.024052	8.258942e-01	80	none	NaN	NaN
 114	4	90	98	kitchen	sun_akchetnepxlcxhsu.tif	115771.793556	115772.052140	115772.750590	7.758400e-01	88	none	NaN	NaN
 114	4	91	69	kitchen	sun_abdenxonkemggwsq.tif	115773.520261	115773.778852	115774.477486	6.924164e-01	59	none	NaN	NaN
 114	4	92	96	kitchen	sun_ajcbwwvdlsvjyzje.tif	115775.246974	115775.505564	115776.204040	6.840740e-01	86	none	NaN	NaN
 114	4	93	75	kitchen	sun_acgtpgfybqjmzeyw.tif	115776.973686	115777.232272	115777.930759	8.175519e-01	65	none	NaN	NaN
 114	4	94	76	kitchen	sun_acwjdupvyjsugpay.tif	115778.700391	115778.958984	115779.657594	7.174435e-01	66	none	NaN	NaN
 114	4	95	104	kitchen	sun_auticobqsbwgoppi.tif	115780.427105	115780.685694	115781.384180	8.008671e-01	94	none	NaN	NaN
 114	4	96	82	kitchen	sun_aenotlpyftoioydp.tif	115782.153814	115782.412403	115783.111026	7.841824e-01	72	none	NaN	NaN
 114	4	97	61	kitchen	labelme_brsyyvweiuaazfr.tif	115783.880524	115784.139113	115784.837587	7.007587e-01	51	none	NaN	NaN
 114	4	98	71	kitchen	sun_abftihopvusyfakt.tif	115785.607237	115785.865827	115786.564261	6.590469e-01	61	none	NaN	NaN
 114	4	99	67	kitchen	sun_aarfiyshqohlwkmo.tif	115787.333943	115787.592534	115788.291040	6.924164e-01	57	none	NaN	NaN
 114	4	100	100	kitchen	sun_amjjdeyrggfqgmom.tif	115789.060651	115789.319247	115790.017870	7.508129e-01	90	none	NaN	NaN
 114	5	1	47	bathroom	sun_apynckhmoftszqoq.tif	115801.606414	115801.865005	115802.571908	7.591553e-01	37	none	NaN	NaN
 114	5	2	55	bathroom	sun_avhrdrntsqrjzccq.tif	115803.341466	115803.600056	115804.307046	6.507045e-01	45	39	115805.381063	1
 114	5	3	45	bathroom	sun_apkxzenqapsujocq.tif	115806.152584	115806.411175	115807.118158	7.424706e-01	35	none	NaN	NaN
 114	5	4	41	bathroom	sun_aoybiabnpadelefl.tif	115807.887637	115808.146225	115808.853149	7.091011e-01	31	none	NaN	NaN
 114	5	5	21	bathroom	sun_aggnnqpdorgxpvce.tif	115809.622687	115809.881274	115810.588159	7.174435e-01	11	none	NaN	NaN
 114	5	6	36	bathroom	sun_ambriybtogmepttm.tif	115811.357743	115811.616331	115812.323297	8.509213e-01	26	none	NaN	NaN
 114	5	7	24	bathroom	sun_agrwbmhcpmfuwmsg.tif	115813.092792	115813.351381	115814.058206	6.757316e-01	14	none	NaN	NaN
 114	5	8	37	bathroom	sun_amzlamotzwfkwjco.tif	115814.819508	115815.078096	115815.785023	7.007587e-01	27	none	NaN	NaN
 114	5	9	20	bathroom	sun_afcoljnjfoxjtgja.tif	115816.554555	115816.813142	115817.519945	7.257858e-01	10	none	NaN	NaN
 114	5	10	40	bathroom	sun_aofnryafpsjimzsb.tif	115818.289602	115818.548192	115819.255167	7.508129e-01	30	none	NaN	NaN
 114	5	11	42	bathroom	sun_apeeialkgkuxddgh.tif	115820.024656	115820.283249	115820.990051	8.092095e-01	32	none	NaN	NaN
 114	5	12	13	bathroom	sun_aavhrsfjbserjtht.tif	115821.759713	115822.018297	115822.725217	8.175519e-01	3	none	NaN	NaN
 114	5	13	11	bathroom	labelme_sfxiulhjbhlyiyt.tif	115823.494762	115823.753353	115824.460252	7.257858e-01	1	none	NaN	NaN
 114	5	14	34	bathroom	sun_alkosphxlxwjwgjd.tif	115825.229812	115825.488402	115826.195370	6.590469e-01	24	37	115829.717165	1
 114	5	15	51	bathroom	sun_atstyziqcmkahyxk.tif	115830.493358	115830.751946	115831.458897	7.257858e-01	41	39	115833.333183	1
 114	5	16	32	bathroom	sun_aleqenyvunhactkl.tif	115834.105270	115834.363854	115835.070713	7.841824e-01	22	none	NaN	NaN
 114	5	17	26	bathroom	sun_ahaulkltgpkeeemi.tif	115835.840325	115836.098913	115836.805707	7.925248e-01	16	none	NaN	NaN
 114	5	18	33	bathroom	sun_aljolscmmzydegqp.tif	115837.575374	115837.833962	115838.540876	7.007587e-01	23	39	115841.349245	0
 114	5	19	28	bathroom	sun_ahijqszoswveeyji.tif	115842.121549	115842.380132	115843.086948	7.007587e-01	18	none	NaN	NaN
 114	5	20	19	bathroom	sun_aclfzgynxzxlbepz.tif	115843.856594	115844.115187	115844.821969	7.591553e-01	9	none	NaN	NaN
 114	5	21	35	bathroom	sun_alotolagknyrgtsk.tif	115845.591645	115845.850240	115846.557220	7.174435e-01	25	none	NaN	NaN
 114	5	22	58	bathroom	sun_axxbkopsgyouuebh.tif	115847.326698	115847.585285	115848.292073	8.509213e-01	48	none	NaN	NaN
 114	5	23	27	bathroom	sun_ahcvzmoyaycdoftf.tif	115849.061751	115849.320339	115850.027124	7.174435e-01	17	none	NaN	NaN
 114	5	24	23	bathroom	sun_aghyqhbptboemmoq.tif	115850.796804	115851.055394	115851.762310	8.092095e-01	13	none	NaN	NaN
 114	5	25	56	bathroom	sun_awnqiikzaispgmwo.tif	115852.531856	115852.790441	115853.497268	8.175519e-01	46	none	NaN	NaN
 114	5	26	15	bathroom	sun_abjtwfukuwddzted.tif	115854.266906	115854.525498	115855.232363	7.424706e-01	5	none	NaN	NaN
 114	5	27	48	bathroom	sun_aqrpegblszgcoujh.tif	115856.001958	115856.260549	115856.967335	8.425790e-01	38	none	NaN	NaN
 114	5	28	18	bathroom	sun_acgyywnybuveqsro.tif	115857.737010	115857.995599	115858.702393	8.175519e-01	8	none	NaN	NaN
 114	5	29	60	bathroom	sun_azqyogdvyhahyram.tif	115859.472058	115859.730650	115860.437491	8.008671e-01	50	none	NaN	NaN
 114	5	30	46	bathroom	sun_apmqjbnwghzuhhzh.tif	115861.207115	115861.465702	115862.172684	6.757316e-01	36	none	NaN	NaN
 114	5	31	30	bathroom	sun_ajlawzvmubibwbpy.tif	115862.942165	115863.200753	115863.907544	6.590469e-01	20	none	NaN	NaN
 114	5	32	31	bathroom	sun_akiytfaagpdsphgz.tif	115864.668878	115864.927461	115865.634420	8.425790e-01	21	none	NaN	NaN
 114	5	33	16	bathroom	sun_acduarbnmmoglmiv.tif	115866.403926	115866.662519	115867.369473	6.673893e-01	6	none	NaN	NaN
 114	5	34	29	bathroom	sun_ahqjwnzgolcaoidx.tif	115868.138981	115868.397574	115869.104351	7.091011e-01	19	37	115872.909083	0
 114	5	35	49	bathroom	sun_asfwthctfqerjvxr.tif	115873.686144	115873.944729	115874.651699	7.674977e-01	39	none	NaN	NaN
 114	5	36	43	bathroom	sun_apjevzvycyhuqghb.tif	115875.421193	115875.679785	115876.386713	8.008671e-01	33	none	NaN	NaN
 114	5	37	22	bathroom	sun_agguqiubmwhqqunb.tif	115877.156240	115877.414840	115878.121611	7.007587e-01	12	none	NaN	NaN
 114	5	38	17	bathroom	sun_acegryoqftbzowsg.tif	115878.891295	115879.149886	115879.856746	6.673893e-01	7	none	NaN	NaN
 114	5	39	44	bathroom	sun_apkruvsevgegsdwp.tif	115880.626348	115880.884939	115881.591830	7.758400e-01	34	39	115882.581123	1
 114	5	40	52	bathroom	sun_aunuadmjocsddsrl.tif	115883.354048	115883.612647	115884.319416	8.008671e-01	42	none	NaN	NaN
 114	5	41	59	bathroom	sun_axyrejkiiaqiurjk.tif	115885.089102	115885.347692	115886.054468	8.008671e-01	49	none	NaN	NaN
 114	5	42	53	bathroom	sun_ausgutylgojavyoq.tif	115886.824153	115887.082744	115887.789575	7.091011e-01	43	none	NaN	NaN
 114	5	43	12	bathroom	sun_aapitsgbtktqubfy.tif	115888.559207	115888.817790	115889.524607	6.590469e-01	2	none	NaN	NaN
 114	5	44	25	bathroom	sun_agyqfjcfkdcydepw.tif	115890.294258	115890.552848	115891.259662	7.674977e-01	15	none	NaN	NaN
 114	5	45	14	bathroom	sun_abapwbhyhkfixyex.tif	115892.029308	115892.287897	115892.994730	7.591553e-01	4	none	NaN	NaN
 114	5	46	54	bathroom	sun_auzqhkafidnkrwmo.tif	115893.764363	115894.022945	115894.729841	8.092095e-01	44	none	NaN	NaN
 114	5	47	39	bathroom	sun_anryaplzeujmzfkd.tif	115895.499415	115895.757997	115896.464957	7.841824e-01	29	none	NaN	NaN
 114	5	48	38	bathroom	sun_anhioqovhscjqqwb.tif	115897.234466	115897.493052	115898.200054	6.757316e-01	28	none	NaN	NaN
 114	5	49	57	bathroom	sun_axldvoqbuvuggfmq.tif	115898.969518	115899.228109	115899.934947	7.758400e-01	47	none	NaN	NaN
 114	5	50	50	bathroom	sun_aspsyogrekjtfozg.tif	115900.704572	115900.963153	115901.669963	8.092095e-01	40	none	NaN	NaN
 114	5	51	50	bathroom	sun_aspsyogrekjtfozg.tif	115902.439621	115902.698216	115903.405097	7.674977e-01	40	none	NaN	NaN
 114	5	52	58	bathroom	sun_axxbkopsgyouuebh.tif	115904.174671	115904.433263	115905.140253	8.258942e-01	48	none	NaN	NaN
 114	5	53	13	bathroom	sun_aavhrsfjbserjtht.tif	115905.909723	115906.168312	115906.875216	8.258942e-01	3	none	NaN	NaN
 114	5	54	28	bathroom	sun_ahijqszoswveeyji.tif	115907.644777	115907.903363	115908.610158	7.424706e-01	18	none	NaN	NaN
 114	5	55	31	bathroom	sun_akiytfaagpdsphgz.tif	115909.379829	115909.638416	115910.345272	7.591553e-01	21	none	NaN	NaN
 114	5	56	14	bathroom	sun_abapwbhyhkfixyex.tif	115911.114881	115911.373469	115912.080399	8.342366e-01	4	none	NaN	NaN
 114	5	57	26	bathroom	sun_ahaulkltgpkeeemi.tif	115912.849930	115913.108521	115913.815348	7.341282e-01	16	none	NaN	NaN
 114	5	58	45	bathroom	sun_apkxzenqapsujocq.tif	115914.584982	115914.843570	115915.550463	8.175519e-01	35	none	NaN	NaN
 114	5	59	52	bathroom	sun_aunuadmjocsddsrl.tif	115916.320035	115916.578628	115917.285411	7.841824e-01	42	none	NaN	NaN
 114	5	60	15	bathroom	sun_abjtwfukuwddzted.tif	115918.055088	115918.313668	115919.020512	8.425790e-01	5	none	NaN	NaN
 114	5	61	42	bathroom	sun_apeeialkgkuxddgh.tif	115919.790137	115920.048726	115920.755513	8.342366e-01	32	none	NaN	NaN
 114	5	62	32	bathroom	sun_aleqenyvunhactkl.tif	115921.525190	115921.783783	115922.490699	8.342366e-01	22	none	NaN	NaN
 114	5	63	34	bathroom	sun_alkosphxlxwjwgjd.tif	115923.260241	115923.518829	115924.225814	7.758400e-01	24	none	NaN	NaN
 114	5	64	16	bathroom	sun_acduarbnmmoglmiv.tif	115924.995292	115925.253883	115925.960849	8.258942e-01	6	none	NaN	NaN
 114	5	65	44	bathroom	sun_apkruvsevgegsdwp.tif	115926.730346	115926.988931	115927.695729	7.591553e-01	34	none	NaN	NaN
 114	5	66	36	bathroom	sun_ambriybtogmepttm.tif	115928.465400	115928.723984	115929.430951	7.508129e-01	26	none	NaN	NaN
 114	5	67	27	bathroom	sun_ahcvzmoyaycdoftf.tif	115930.200452	115930.459039	115931.165970	6.840740e-01	17	none	NaN	NaN
 114	5	68	33	bathroom	sun_aljolscmmzydegqp.tif	115931.935502	115932.194085	115932.901096	8.175519e-01	23	37	115934.532868	0
 114	5	69	49	bathroom	sun_asfwthctfqerjvxr.tif	115935.305503	115935.564099	115936.271074	6.924164e-01	39	none	NaN	NaN
 114	5	70	46	bathroom	sun_apmqjbnwghzuhhzh.tif	115937.040555	115937.299148	115938.006097	6.590469e-01	36	39	115939.125236	1
 114	5	71	60	bathroom	sun_azqyogdvyhahyram.tif	115939.901722	115940.160313	115940.867270	6.924164e-01	50	39	115942.780891	0
 114	5	72	56	bathroom	sun_awnqiikzaispgmwo.tif	115943.555344	115943.813930	115944.520774	8.342366e-01	46	none	NaN	NaN
 114	5	73	53	bathroom	sun_ausgutylgojavyoq.tif	115945.290395	115945.548981	115946.255820	7.925248e-01	43	none	NaN	NaN
 114	5	74	12	bathroom	sun_aapitsgbtktqubfy.tif	115947.025446	115947.284038	115947.990845	7.925248e-01	2	none	NaN	NaN
 114	5	75	38	bathroom	sun_anhioqovhscjqqwb.tif	115948.760499	115949.019093	115949.725985	6.924164e-01	28	none	NaN	NaN
 114	5	76	47	bathroom	sun_apynckhmoftszqoq.tif	115950.495551	115950.754139	115951.460920	6.924164e-01	37	none	NaN	NaN
 114	5	77	55	bathroom	sun_avhrdrntsqrjzccq.tif	115952.230606	115952.489191	115953.196140	6.840740e-01	45	none	NaN	NaN
 114	5	78	29	bathroom	sun_ahqjwnzgolcaoidx.tif	115953.965658	115954.224242	115954.931178	8.425790e-01	19	none	NaN	NaN
 114	5	79	20	bathroom	sun_afcoljnjfoxjtgja.tif	115955.700710	115955.959298	115956.666242	7.841824e-01	10	37	115961.429219	1
 114	5	80	59	bathroom	sun_axyrejkiiaqiurjk.tif	115962.207153	115962.465738	115963.172580	6.507045e-01	49	none	NaN	NaN
 114	5	81	39	bathroom	sun_anryaplzeujmzfkd.tif	115963.942205	115964.200792	115964.907632	7.257858e-01	29	none	NaN	NaN
 114	5	82	18	bathroom	sun_acgyywnybuveqsro.tif	115965.677255	115965.935849	115966.642862	7.341282e-01	8	none	NaN	NaN
 114	5	83	21	bathroom	sun_aggnnqpdorgxpvce.tif	115967.412310	115967.670898	115968.377868	7.091011e-01	11	none	NaN	NaN
 114	5	84	37	bathroom	sun_amzlamotzwfkwjco.tif	115969.147356	115969.405948	115970.112876	7.174435e-01	27	39	115971.821197	1
 114	5	85	11	bathroom	labelme_sfxiulhjbhlyiyt.tif	115972.592439	115972.851030	115973.557982	7.341282e-01	1	39	115974.997067	0
 114	5	86	35	bathroom	sun_alotolagknyrgtsk.tif	115975.770585	115976.029176	115976.736116	7.508129e-01	25	37	115977.573169	1
 114	5	87	30	bathroom	sun_ajlawzvmubibwbpy.tif	115978.348135	115978.606725	115979.313563	7.674977e-01	20	none	NaN	NaN
 114	5	88	57	bathroom	sun_axldvoqbuvuggfmq.tif	115980.083187	115980.341781	115981.048666	6.840740e-01	47	none	NaN	NaN
 114	5	89	22	bathroom	sun_agguqiubmwhqqunb.tif	115981.818240	115982.076827	115982.783720	6.757316e-01	12	none	NaN	NaN
 114	5	90	19	bathroom	sun_aclfzgynxzxlbepz.tif	115983.553297	115983.811883	115984.518871	7.341282e-01	9	none	NaN	NaN
 114	5	91	25	bathroom	sun_agyqfjcfkdcydepw.tif	115985.288346	115985.546935	115986.253803	6.673893e-01	15	37	115987.253014	1
 114	5	92	43	bathroom	sun_apjevzvycyhuqghb.tif	115988.024392	115988.282974	115988.989927	6.673893e-01	33	none	NaN	NaN
 114	5	93	54	bathroom	sun_auzqhkafidnkrwmo.tif	115989.759444	115990.018035	115990.724842	7.758400e-01	44	none	NaN	NaN
 114	5	94	51	bathroom	sun_atstyziqcmkahyxk.tif	115991.494493	115991.753082	115992.459861	7.424706e-01	41	none	NaN	NaN
 114	5	95	24	bathroom	sun_agrwbmhcpmfuwmsg.tif	115993.229544	115993.488136	115994.194921	6.840740e-01	14	none	NaN	NaN
 114	5	96	23	bathroom	sun_aghyqhbptboemmoq.tif	115994.964597	115995.223186	115995.930173	6.924164e-01	13	39	115997.549025	1
 114	5	97	40	bathroom	sun_aofnryafpsjimzsb.tif	115998.326260	115998.584854	115999.291761	6.507045e-01	30	none	NaN	NaN
 114	5	98	41	bathroom	sun_aoybiabnpadelefl.tif	116000.061314	116000.319902	116001.026813	7.508129e-01	31	none	NaN	NaN
 114	5	99	48	bathroom	sun_aqrpegblszgcoujh.tif	116001.796360	116002.054953	116002.761884	7.925248e-01	38	none	NaN	NaN
 114	5	100	17	bathroom	sun_acegryoqftbzowsg.tif	116003.531412	116003.790004	116004.496962	8.258942e-01	7	none	NaN	NaN
 114	6	1	64	kitchen	sun_aadbddgrdsjugojn.tif	116017.545298	116017.803880	116018.544120	8.425790e-01	54	none	NaN	NaN
 114	6	2	81	kitchen	sun_aehawpgmrlhlvcow.tif	116019.313718	116019.572300	116020.312570	7.091011e-01	71	none	NaN	NaN
 114	6	3	108	kitchen	sun_aymvwlarqodbwuoc.tif	116021.082131	116021.340722	116022.080976	6.840740e-01	98	none	NaN	NaN
 114	6	4	65	kitchen	sun_aamedkxepzlwuxes.tif	116022.850550	116023.109137	116023.849400	8.258942e-01	55	none	NaN	NaN
 114	6	5	87	kitchen	sun_agorklincwxrdtga.tif	116024.618967	116024.877557	116025.617740	8.175519e-01	77	none	NaN	NaN
 114	6	6	90	kitchen	sun_ahdycvpopffkzzsu.tif	116026.387388	116026.645976	116027.386285	7.508129e-01	80	none	NaN	NaN
 114	6	7	99	kitchen	sun_akcjzhbbjlbogpdi.tif	116028.155806	116028.414394	116029.154663	7.674977e-01	89	37	116030.429154	0
 114	6	8	93	kitchen	sun_ahspylgoovwmwvgk.tif	116031.200488	116031.459075	116032.199403	7.007587e-01	83	none	NaN	NaN
 114	6	9	62	kitchen	labelme_kxvouciolcpqplr.tif	116032.968903	116033.227498	116033.967724	6.673893e-01	52	none	NaN	NaN
 114	6	10	69	kitchen	sun_abdenxonkemggwsq.tif	116034.737324	116034.995912	116035.736100	6.840740e-01	59	none	NaN	NaN
 114	6	11	98	kitchen	sun_akchetnepxlcxhsu.tif	116036.505745	116036.764330	116037.504557	7.841824e-01	88	none	NaN	NaN
 114	6	12	106	kitchen	sun_awcpdzzznmweyyhv.tif	116038.274161	116038.532751	116039.272947	7.925248e-01	96	none	NaN	NaN
 114	6	13	109	kitchen	sun_aypmqwcualkenuoe.tif	116040.042579	116040.301170	116041.041454	6.924164e-01	99	none	NaN	NaN
 114	6	14	100	kitchen	sun_amjjdeyrggfqgmom.tif	116041.810997	116042.069585	116042.809915	7.174435e-01	90	none	NaN	NaN
 114	6	15	89	kitchen	sun_agzzivivdpnawacl.tif	116043.579417	116043.838008	116044.578303	8.258942e-01	79	none	NaN	NaN
 114	6	16	103	kitchen	sun_aunzlwrbjumxhwdj.tif	116045.347828	116045.606419	116046.346711	6.924164e-01	93	none	NaN	NaN
 114	6	17	78	kitchen	sun_adgqasybjyktddhj.tif	116047.116249	116047.374839	116048.115169	8.342366e-01	68	none	NaN	NaN
 114	6	18	68	kitchen	sun_aaxxjlsuzvqlgylf.tif	116048.884668	116049.143257	116049.883469	8.258942e-01	58	none	NaN	NaN
 114	6	19	71	kitchen	sun_abftihopvusyfakt.tif	116050.653089	116050.911680	116051.651874	7.091011e-01	61	none	NaN	NaN
 114	6	20	105	kitchen	sun_avszsnwsbuqfgzbn.tif	116052.421508	116052.680091	116053.420302	6.507045e-01	95	37	116054.165138	0
 114	6	21	73	kitchen	sun_abrcnpqqhmjwekyf.tif	116054.940669	116055.199255	116055.939477	7.591553e-01	63	none	NaN	NaN
 114	6	22	67	kitchen	sun_aarfiyshqohlwkmo.tif	116056.709090	116056.967676	116057.707878	7.758400e-01	57	none	NaN	NaN
 114	6	23	86	kitchen	sun_aggjlwcdjsjcaemh.tif	116058.477503	116058.736096	116059.476345	8.008671e-01	76	none	NaN	NaN
 114	6	24	74	kitchen	sun_acfmftudsenhrfhy.tif	116060.245922	116060.504509	116061.244758	6.590469e-01	64	none	NaN	NaN
 114	6	25	66	kitchen	sun_aapllqyqlykszopd.tif	116062.014341	116062.272931	116063.013076	7.174435e-01	56	none	NaN	NaN
 114	6	26	95	kitchen	sun_aixorpehvfykdynp.tif	116063.782763	116064.041348	116064.781704	7.591553e-01	85	none	NaN	NaN
 114	6	27	70	kitchen	sun_abdxkyyxwfskuaqb.tif	116065.551179	116065.809768	116066.550038	8.342366e-01	60	39	116067.821245	1
 114	6	28	75	kitchen	sun_acgtpgfybqjmzeyw.tif	116068.595859	116068.854449	116069.594632	8.425790e-01	65	none	NaN	NaN
 114	6	29	94	kitchen	sun_ahywdevtimnqcsln.tif	116070.364277	116070.622877	116071.363114	7.424706e-01	84	none	NaN	NaN
 114	6	30	85	kitchen	sun_afuyedyxivkhecmu.tif	116072.132698	116072.391285	116073.131511	7.841824e-01	75	none	NaN	NaN
 114	6	31	107	kitchen	sun_axyyrmzcupyhlivc.tif	116073.901115	116074.159707	116074.900042	8.175519e-01	97	none	NaN	NaN
 114	6	32	91	kitchen	sun_ahljzhgcdpomplvg.tif	116075.669531	116075.928123	116076.668363	7.257858e-01	81	none	NaN	NaN
 114	6	33	96	kitchen	sun_ajcbwwvdlsvjyzje.tif	116077.437950	116077.696541	116078.436764	7.758400e-01	86	39	116079.613148	1
 114	6	34	82	kitchen	sun_aenotlpyftoioydp.tif	116080.390875	116080.649469	116081.389728	7.591553e-01	72	37	116082.189028	1
 114	6	35	102	kitchen	sun_auaiucuqpdausiva.tif	116082.960096	116083.218680	116083.959004	8.008671e-01	92	39	116085.429113	0
 114	6	36	72	kitchen	sun_abpwyqmlzafvklqo.tif	116086.204966	116086.463561	116087.203743	7.257858e-01	62	none	NaN	NaN
 114	6	37	84	kitchen	sun_aexklacwqwezaorf.tif	116087.973389	116088.231981	116088.972141	7.674977e-01	74	39	116089.797231	1
 114	6	38	101	kitchen	sun_aqeaevwwwjoqhzvl.tif	116090.567624	116090.826211	116091.566535	7.674977e-01	91	none	NaN	NaN
 114	6	39	110	kitchen	sun_azmutvzbxypaceni.tif	116092.336041	116092.594631	116093.334802	6.590469e-01	100	none	NaN	NaN
 114	6	40	83	kitchen	sun_aeqdocilnnpuvuhx.tif	116094.104462	116094.363052	116095.103323	8.008671e-01	73	none	NaN	NaN
 114	6	41	77	kitchen	sun_acxkpeoqbwcxfvip.tif	116095.872878	116096.131467	116096.871685	8.175519e-01	67	none	NaN	NaN
 114	6	42	63	kitchen	labelme_rykdqxenmhulbdn.tif	116097.641293	116097.899889	116098.640212	6.507045e-01	53	none	NaN	NaN
 114	6	43	80	kitchen	sun_aegoxogugdkwpmpj.tif	116099.409713	116099.668304	116100.408623	7.091011e-01	70	none	NaN	NaN
 114	6	44	79	kitchen	sun_admlmbcdswaszruo.tif	116101.178133	116101.436718	116102.176874	7.925248e-01	69	37	116103.557111	1
 114	6	45	61	kitchen	labelme_brsyyvweiuaazfr.tif	116104.331257	116104.589848	116105.330089	7.007587e-01	51	none	NaN	NaN
 114	6	46	97	kitchen	sun_ajkqhtgcbgpcwrwn.tif	116106.099671	116106.358263	116107.098607	7.091011e-01	87	none	NaN	NaN
 114	6	47	88	kitchen	sun_agubuxuukhzyzpdp.tif	116107.868091	116108.126684	116108.866823	7.341282e-01	78	none	NaN	NaN
 114	6	48	104	kitchen	sun_auticobqsbwgoppi.tif	116109.636506	116109.895097	116110.635417	7.758400e-01	94	none	NaN	NaN
 114	6	49	76	kitchen	sun_acwjdupvyjsugpay.tif	116111.404928	116111.663518	116112.403730	7.591553e-01	66	none	NaN	NaN
 114	6	50	92	kitchen	sun_ahpczsiumwwocjkv.tif	116113.173345	116113.431946	116114.172139	7.174435e-01	82	none	NaN	NaN
 114	6	51	105	kitchen	sun_avszsnwsbuqfgzbn.tif	116114.941766	116115.200355	116115.940569	8.258942e-01	95	none	NaN	NaN
 114	6	52	92	kitchen	sun_ahpczsiumwwocjkv.tif	116116.710182	116116.968772	116117.708970	8.342366e-01	82	none	NaN	NaN
 114	6	53	83	kitchen	sun_aeqdocilnnpuvuhx.tif	116118.478603	116118.737189	116119.477478	7.341282e-01	73	none	NaN	NaN
 114	6	54	94	kitchen	sun_ahywdevtimnqcsln.tif	116120.247017	116120.505609	116121.245876	8.092095e-01	84	none	NaN	NaN
 114	6	55	101	kitchen	sun_aqeaevwwwjoqhzvl.tif	116122.015436	116122.274027	116123.014335	7.007587e-01	91	none	NaN	NaN
 114	6	56	81	kitchen	sun_aehawpgmrlhlvcow.tif	116123.783857	116124.042446	116124.782697	6.840740e-01	71	none	NaN	NaN
 114	6	57	87	kitchen	sun_agorklincwxrdtga.tif	116125.552271	116125.810864	116126.551189	8.092095e-01	77	none	NaN	NaN
 114	6	58	89	kitchen	sun_agzzivivdpnawacl.tif	116127.320693	116127.579283	116128.319442	7.257858e-01	79	none	NaN	NaN
 114	6	59	74	kitchen	sun_acfmftudsenhrfhy.tif	116129.089110	116129.347705	116130.087883	8.008671e-01	64	none	NaN	NaN
 114	6	60	67	kitchen	sun_aarfiyshqohlwkmo.tif	116130.857529	116131.116118	116131.856418	6.924164e-01	57	none	NaN	NaN
 114	6	61	63	kitchen	labelme_rykdqxenmhulbdn.tif	116132.625949	116132.884539	116133.624918	6.673893e-01	53	none	NaN	NaN
 114	6	62	84	kitchen	sun_aexklacwqwezaorf.tif	116134.394369	116134.652956	116135.393133	6.590469e-01	74	none	NaN	NaN
 114	6	63	103	kitchen	sun_aunzlwrbjumxhwdj.tif	116136.162785	116136.421375	116137.161682	6.924164e-01	93	37	116138.317116	1
 114	6	64	91	kitchen	sun_ahljzhgcdpomplvg.tif	116139.090687	116139.349272	116140.089511	6.924164e-01	81	none	NaN	NaN
 114	6	65	62	kitchen	labelme_kxvouciolcpqplr.tif	116140.859102	116141.117693	116141.857899	7.424706e-01	52	39	116143.245238	1
 114	6	66	106	kitchen	sun_awcpdzzznmweyyhv.tif	116144.020566	116144.279158	116145.019500	6.673893e-01	96	none	NaN	NaN
 114	6	67	68	kitchen	sun_aaxxjlsuzvqlgylf.tif	116145.788988	116146.047575	116146.787828	7.508129e-01	58	none	NaN	NaN
 114	6	68	65	kitchen	sun_aamedkxepzlwuxes.tif	116147.557403	116147.815993	116148.556299	7.341282e-01	55	none	NaN	NaN
 114	6	69	96	kitchen	sun_ajcbwwvdlsvjyzje.tif	116149.325818	116149.584435	116150.324655	7.007587e-01	86	none	NaN	NaN
 114	6	70	110	kitchen	sun_azmutvzbxypaceni.tif	116151.094241	116151.352832	116152.093098	8.425790e-01	100	none	NaN	NaN
 114	6	71	77	kitchen	sun_acxkpeoqbwcxfvip.tif	116152.862661	116153.121246	116153.861503	8.509213e-01	67	37	116154.741083	0
 114	6	72	86	kitchen	sun_aggjlwcdjsjcaemh.tif	116155.515287	116155.773874	116156.514168	7.925248e-01	76	none	NaN	NaN
 114	6	73	64	kitchen	sun_aadbddgrdsjugojn.tif	116157.283706	116157.542299	116158.282614	6.757316e-01	54	none	NaN	NaN
 114	6	74	76	kitchen	sun_acwjdupvyjsugpay.tif	116159.052125	116159.310711	116160.050984	8.175519e-01	66	none	NaN	NaN
 114	6	75	104	kitchen	sun_auticobqsbwgoppi.tif	116160.820541	116161.079131	116161.819489	8.509213e-01	94	none	NaN	NaN
 114	6	76	95	kitchen	sun_aixorpehvfykdynp.tif	116162.588959	116162.847546	116163.587872	7.508129e-01	85	none	NaN	NaN
 114	6	77	109	kitchen	sun_aypmqwcualkenuoe.tif	116164.357375	116164.615967	116165.356133	8.342366e-01	99	none	NaN	NaN
 114	6	78	108	kitchen	sun_aymvwlarqodbwuoc.tif	116166.125795	116166.384385	116167.124542	6.757316e-01	98	37	116168.188997	1
 114	6	79	100	kitchen	sun_amjjdeyrggfqgmom.tif	116168.961936	116169.220521	116169.960673	7.591553e-01	90	none	NaN	NaN
 114	6	80	99	kitchen	sun_akcjzhbbjlbogpdi.tif	116170.730355	116170.988946	116171.729247	6.590469e-01	89	none	NaN	NaN
 114	6	81	70	kitchen	sun_abdxkyyxwfskuaqb.tif	116172.498771	116172.757362	116173.497540	7.174435e-01	60	none	NaN	NaN
 114	6	82	75	kitchen	sun_acgtpgfybqjmzeyw.tif	116174.267191	116174.525777	116175.266063	6.673893e-01	65	37	116176.309264	1
 114	6	83	90	kitchen	sun_ahdycvpopffkzzsu.tif	116177.086648	116177.345240	116178.085445	6.757316e-01	80	none	NaN	NaN
 114	6	84	97	kitchen	sun_ajkqhtgcbgpcwrwn.tif	116178.855069	116179.113660	116179.854025	6.840740e-01	87	none	NaN	NaN
 114	6	85	88	kitchen	sun_agubuxuukhzyzpdp.tif	116180.623488	116180.882077	116181.622286	6.507045e-01	78	none	NaN	NaN
 114	6	86	80	kitchen	sun_aegoxogugdkwpmpj.tif	116182.391909	116182.650493	116183.390706	8.092095e-01	70	none	NaN	NaN
 114	6	87	82	kitchen	sun_aenotlpyftoioydp.tif	116184.160322	116184.418910	116185.159161	7.257858e-01	72	none	NaN	NaN
 114	6	88	102	kitchen	sun_auaiucuqpdausiva.tif	116185.928743	116186.187330	116186.927652	7.925248e-01	92	37	116187.965045	0
 114	6	89	66	kitchen	sun_aapllqyqlykszopd.tif	116188.739860	116188.998451	116189.738699	7.841824e-01	56	none	NaN	NaN
 114	6	90	78	kitchen	sun_adgqasybjyktddhj.tif	116190.508278	116190.766865	116191.507187	8.092095e-01	68	none	NaN	NaN
 114	6	91	61	kitchen	labelme_brsyyvweiuaazfr.tif	116192.276694	116192.535288	116193.275469	8.175519e-01	51	none	NaN	NaN
 114	6	92	79	kitchen	sun_admlmbcdswaszruo.tif	116194.045114	116194.303706	116195.044001	8.425790e-01	69	37	116195.748899	1
 114	6	93	73	kitchen	sun_abrcnpqqhmjwekyf.tif	116196.522572	116196.781159	116197.521339	7.674977e-01	63	none	NaN	NaN
 114	6	94	69	kitchen	sun_abdenxonkemggwsq.tif	116198.290990	116198.549574	116199.289767	6.757316e-01	59	none	NaN	NaN
 114	6	95	98	kitchen	sun_akchetnepxlcxhsu.tif	116200.059405	116200.318000	116201.058349	7.758400e-01	88	none	NaN	NaN
 114	6	96	107	kitchen	sun_axyyrmzcupyhlivc.tif	116201.827821	116202.086412	116202.826717	7.841824e-01	97	none	NaN	NaN
 114	6	97	71	kitchen	sun_abftihopvusyfakt.tif	116203.596244	116203.854833	116204.595056	7.508129e-01	61	none	NaN	NaN
 114	6	98	85	kitchen	sun_afuyedyxivkhecmu.tif	116205.364659	116205.623247	116206.363483	7.341282e-01	75	none	NaN	NaN
 114	6	99	93	kitchen	sun_ahspylgoovwmwvgk.tif	116207.133077	116207.391667	116208.131953	7.424706e-01	83	none	NaN	NaN
 114	6	100	72	kitchen	sun_abpwyqmlzafvklqo.tif	116208.901498	116209.160085	116209.900279	7.424706e-01	62	none	NaN	NaN
 114	7	1	30	bathroom	sun_ajlawzvmubibwbpy.tif	116227.453205	116227.711796	116228.402042	6.673893e-01	20	39	116229.981106	0
 114	7	2	24	bathroom	sun_agrwbmhcpmfuwmsg.tif	116230.756479	116231.015071	116231.705199	7.424706e-01	14	none	NaN	NaN
 114	7	3	18	bathroom	sun_acgyywnybuveqsro.tif	116232.474843	116232.733436	116233.423538	7.674977e-01	8	none	NaN	NaN
 114	7	4	11	bathroom	labelme_sfxiulhjbhlyiyt.tif	116234.193215	116234.451806	116235.142084	7.508129e-01	1	none	NaN	NaN
 114	7	5	36	bathroom	sun_ambriybtogmepttm.tif	116235.911580	116236.170173	116236.860677	7.841824e-01	26	none	NaN	NaN
 114	7	6	59	bathroom	sun_axyrejkiiaqiurjk.tif	116237.629950	116237.888540	116238.578698	8.008671e-01	49	39	116240.141216	1
 114	7	7	41	bathroom	sun_aoybiabnpadelefl.tif	116240.916543	116241.175128	116241.865430	7.007587e-01	31	none	NaN	NaN
 114	7	8	27	bathroom	sun_ahcvzmoyaycdoftf.tif	116242.634906	116242.893498	116243.583605	7.341282e-01	17	none	NaN	NaN
 114	7	9	33	bathroom	sun_aljolscmmzydegqp.tif	116244.353280	116244.611868	116245.302145	7.424706e-01	23	none	NaN	NaN
 114	7	10	19	bathroom	sun_aclfzgynxzxlbepz.tif	116246.071643	116246.330234	116247.020337	6.757316e-01	9	none	NaN	NaN
 114	7	11	50	bathroom	sun_aspsyogrekjtfozg.tif	116247.790018	116248.048607	116248.738852	7.508129e-01	40	none	NaN	NaN
 114	7	12	25	bathroom	sun_agyqfjcfkdcydepw.tif	116249.508385	116249.766972	116250.457176	6.507045e-01	15	37	116253.037208	1
 114	7	13	48	bathroom	sun_aqrpegblszgcoujh.tif	116253.812651	116254.071240	116254.761532	8.008671e-01	38	none	NaN	NaN
 114	7	14	52	bathroom	sun_aunuadmjocsddsrl.tif	116255.531017	116255.789620	116256.479806	8.342366e-01	42	none	NaN	NaN
 114	7	15	45	bathroom	sun_apkxzenqapsujocq.tif	116257.249382	116257.507970	116258.198190	7.925248e-01	35	none	NaN	NaN
 114	7	16	54	bathroom	sun_auzqhkafidnkrwmo.tif	116258.967754	116259.226339	116259.916438	6.840740e-01	44	none	NaN	NaN
 114	7	17	43	bathroom	sun_apjevzvycyhuqghb.tif	116260.686114	116260.944711	116261.634965	6.924164e-01	33	37	116262.557077	1
 114	7	18	23	bathroom	sun_aghyqhbptboemmoq.tif	116263.330407	116263.588998	116264.279206	7.591553e-01	13	none	NaN	NaN
 114	7	19	57	bathroom	sun_axldvoqbuvuggfmq.tif	116265.048780	116265.307370	116265.997485	7.508129e-01	47	none	NaN	NaN
 114	7	20	13	bathroom	sun_aavhrsfjbserjtht.tif	116266.767142	116267.025731	116267.715902	8.175519e-01	3	none	NaN	NaN
 114	7	21	28	bathroom	sun_ahijqszoswveeyji.tif	116268.485515	116268.744098	116269.434332	7.341282e-01	18	39	116270.245152	1
 114	7	22	51	bathroom	sun_atstyziqcmkahyxk.tif	116271.021360	116271.279950	116271.970069	7.257858e-01	41	none	NaN	NaN
 114	7	23	55	bathroom	sun_avhrdrntsqrjzccq.tif	116272.739728	116272.998319	116273.688526	7.091011e-01	45	none	NaN	NaN
 114	7	24	40	bathroom	sun_aofnryafpsjimzsb.tif	116274.458098	116274.716682	116275.406813	6.924164e-01	30	none	NaN	NaN
 114	7	25	44	bathroom	sun_apkruvsevgegsdwp.tif	116276.176466	116276.435055	116277.125282	8.092095e-01	34	none	NaN	NaN
 114	7	26	42	bathroom	sun_apeeialkgkuxddgh.tif	116277.894829	116278.153419	116278.843720	8.175519e-01	32	none	NaN	NaN
 114	7	27	20	bathroom	sun_afcoljnjfoxjtgja.tif	116279.613200	116279.871795	116280.561965	7.174435e-01	10	none	NaN	NaN
 114	7	28	17	bathroom	sun_acegryoqftbzowsg.tif	116281.331571	116281.590159	116282.280255	8.258942e-01	7	none	NaN	NaN
 114	7	29	37	bathroom	sun_amzlamotzwfkwjco.tif	116283.049940	116283.308532	116283.998645	6.924164e-01	27	none	NaN	NaN
 114	7	30	16	bathroom	sun_acduarbnmmoglmiv.tif	116284.768310	116285.026895	116285.717190	6.840740e-01	6	none	NaN	NaN
 114	7	31	34	bathroom	sun_alkosphxlxwjwgjd.tif	116286.486678	116286.745267	116287.435500	8.342366e-01	24	none	NaN	NaN
 114	7	32	49	bathroom	sun_asfwthctfqerjvxr.tif	116288.205046	116288.463633	116289.153898	7.674977e-01	39	none	NaN	NaN
 114	7	33	31	bathroom	sun_akiytfaagpdsphgz.tif	116289.923412	116290.182004	116290.872118	7.925248e-01	21	none	NaN	NaN
 114	7	34	53	bathroom	sun_ausgutylgojavyoq.tif	116291.641782	116291.900374	116292.590550	7.091011e-01	43	37	116295.645091	0
 114	7	35	39	bathroom	sun_anryaplzeujmzfkd.tif	116296.421515	116296.680107	116297.370273	8.425790e-01	29	none	NaN	NaN
 114	7	36	21	bathroom	sun_aggnnqpdorgxpvce.tif	116298.139885	116298.398474	116299.088635	7.925248e-01	11	37	116300.973161	0
 114	7	37	56	bathroom	sun_awnqiikzaispgmwo.tif	116301.743456	116302.002051	116302.692350	7.341282e-01	46	none	NaN	NaN
 114	7	38	14	bathroom	sun_abapwbhyhkfixyex.tif	116303.461828	116303.720414	116304.410691	8.175519e-01	4	none	NaN	NaN
 114	7	39	60	bathroom	sun_azqyogdvyhahyram.tif	116305.180193	116305.438785	116306.129082	7.591553e-01	50	none	NaN	NaN
 114	7	40	38	bathroom	sun_anhioqovhscjqqwb.tif	116306.898564	116307.157156	116307.847362	8.175519e-01	28	none	NaN	NaN
 114	7	41	47	bathroom	sun_apynckhmoftszqoq.tif	116308.616932	116308.875520	116309.565616	6.507045e-01	37	none	NaN	NaN
 114	7	42	12	bathroom	sun_aapitsgbtktqubfy.tif	116310.335303	116310.593893	116311.284186	8.008671e-01	2	none	NaN	NaN
 114	7	43	22	bathroom	sun_agguqiubmwhqqunb.tif	116312.053669	116312.312258	116313.002517	7.424706e-01	12	37	116314.172897	1
 114	7	44	46	bathroom	sun_apmqjbnwghzuhhzh.tif	116314.948198	116315.206791	116315.896930	8.342366e-01	36	none	NaN	NaN
 114	7	45	58	bathroom	sun_axxbkopsgyouuebh.tif	116316.666570	116316.925157	116317.615357	8.258942e-01	48	none	NaN	NaN
 114	7	46	35	bathroom	sun_alotolagknyrgtsk.tif	116318.384940	116318.643531	116319.333659	8.425790e-01	25	none	NaN	NaN
 114	7	47	26	bathroom	sun_ahaulkltgpkeeemi.tif	116320.103307	116320.361899	116321.052196	8.092095e-01	16	none	NaN	NaN
 114	7	48	29	bathroom	sun_ahqjwnzgolcaoidx.tif	116321.821680	116322.080269	116322.770404	6.673893e-01	19	none	NaN	NaN
 114	7	49	32	bathroom	sun_aleqenyvunhactkl.tif	116323.540050	116323.798634	116324.488737	7.591553e-01	22	none	NaN	NaN
 114	7	50	15	bathroom	sun_abjtwfukuwddzted.tif	116325.258413	116325.517003	116326.207200	6.590469e-01	5	none	NaN	NaN
 114	7	51	16	bathroom	sun_acduarbnmmoglmiv.tif	116326.976778	116327.235375	116327.925471	7.174435e-01	6	none	NaN	NaN
 114	7	52	53	bathroom	sun_ausgutylgojavyoq.tif	116328.695150	116328.953741	116329.643954	8.342366e-01	43	none	NaN	NaN
 114	7	53	23	bathroom	sun_aghyqhbptboemmoq.tif	116330.413515	116330.672110	116331.362371	7.758400e-01	13	none	NaN	NaN
 114	7	54	17	bathroom	sun_acegryoqftbzowsg.tif	116332.131891	116332.390473	116333.080636	6.673893e-01	7	none	NaN	NaN
 114	7	55	32	bathroom	sun_aleqenyvunhactkl.tif	116333.850254	116334.108840	116334.799046	8.425790e-01	22	37	116335.725118	1
 114	7	56	37	bathroom	sun_amzlamotzwfkwjco.tif	116336.502880	116336.761471	116337.451751	8.092095e-01	27	none	NaN	NaN
 114	7	57	59	bathroom	sun_axyrejkiiaqiurjk.tif	116338.221251	116338.479836	116339.170115	7.508129e-01	49	39	116340.637046	1
 114	7	58	41	bathroom	sun_aoybiabnpadelefl.tif	116341.407748	116341.666333	116342.356608	7.007587e-01	31	none	NaN	NaN
 114	7	59	26	bathroom	sun_ahaulkltgpkeeemi.tif	116343.126112	116343.384696	116344.074796	8.092095e-01	16	none	NaN	NaN
 114	7	60	55	bathroom	sun_avhrdrntsqrjzccq.tif	116344.844475	116345.103060	116345.793364	6.757316e-01	45	none	NaN	NaN
 114	7	61	40	bathroom	sun_aofnryafpsjimzsb.tif	116346.562846	116346.821434	116347.511734	7.341282e-01	30	none	NaN	NaN
 114	7	62	33	bathroom	sun_aljolscmmzydegqp.tif	116348.281215	116348.539801	116349.230088	6.924164e-01	23	none	NaN	NaN
 114	7	63	24	bathroom	sun_agrwbmhcpmfuwmsg.tif	116349.999580	116350.258170	116350.948276	7.591553e-01	14	none	NaN	NaN
 114	7	64	39	bathroom	sun_anryaplzeujmzfkd.tif	116351.717950	116351.976540	116352.666721	8.509213e-01	29	none	NaN	NaN
 114	7	65	38	bathroom	sun_anhioqovhscjqqwb.tif	116353.436317	116353.694906	116354.385149	6.590469e-01	28	none	NaN	NaN
 114	7	66	15	bathroom	sun_abjtwfukuwddzted.tif	116355.154685	116355.413276	116356.103441	6.757316e-01	5	none	NaN	NaN
 114	7	67	42	bathroom	sun_apeeialkgkuxddgh.tif	116356.873058	116357.131641	116357.821792	7.841824e-01	32	none	NaN	NaN
 114	7	68	11	bathroom	labelme_sfxiulhjbhlyiyt.tif	116358.591421	116358.850007	116359.540137	8.509213e-01	1	none	NaN	NaN
 114	7	69	12	bathroom	sun_aapitsgbtktqubfy.tif	116360.309792	116360.568384	116361.258485	6.840740e-01	2	none	NaN	NaN
 114	7	70	43	bathroom	sun_apjevzvycyhuqghb.tif	116362.028161	116362.286746	116362.976922	7.257858e-01	33	none	NaN	NaN
 114	7	71	47	bathroom	sun_apynckhmoftszqoq.tif	116363.746526	116364.005114	116364.695308	8.008671e-01	37	37	116366.477228	1
 114	7	72	34	bathroom	sun_alkosphxlxwjwgjd.tif	116367.249995	116367.508587	116368.198694	7.591553e-01	24	none	NaN	NaN
 114	7	73	30	bathroom	sun_ajlawzvmubibwbpy.tif	116368.968366	116369.226956	116369.917240	7.174435e-01	20	none	NaN	NaN
 114	7	74	56	bathroom	sun_awnqiikzaispgmwo.tif	116370.686736	116370.945319	116371.635478	6.590469e-01	46	none	NaN	NaN
 114	7	75	36	bathroom	sun_ambriybtogmepttm.tif	116372.405101	116372.663695	116373.353959	8.175519e-01	26	none	NaN	NaN
 114	7	76	46	bathroom	sun_apmqjbnwghzuhhzh.tif	116374.123473	116374.382059	116375.072363	6.673893e-01	36	none	NaN	NaN
 114	7	77	14	bathroom	sun_abapwbhyhkfixyex.tif	116375.841840	116376.100424	116376.790614	7.758400e-01	4	none	NaN	NaN
 114	7	78	19	bathroom	sun_aclfzgynxzxlbepz.tif	116377.560212	116377.818798	116378.508890	6.924164e-01	9	none	NaN	NaN
 114	7	79	25	bathroom	sun_agyqfjcfkdcydepw.tif	116379.270234	116379.528827	116380.219005	7.007587e-01	15	none	NaN	NaN
 114	7	80	13	bathroom	sun_aavhrsfjbserjtht.tif	116380.988602	116381.247194	116381.937429	7.257858e-01	3	none	NaN	NaN
 114	7	81	60	bathroom	sun_azqyogdvyhahyram.tif	116382.706968	116382.965556	116383.655682	7.424706e-01	50	none	NaN	NaN
 114	7	82	50	bathroom	sun_aspsyogrekjtfozg.tif	116384.425340	116384.683930	116385.374205	6.507045e-01	40	37	116386.253072	0
 114	7	83	22	bathroom	sun_agguqiubmwhqqunb.tif	116387.027914	116387.286501	116387.976635	6.590469e-01	12	none	NaN	NaN
 114	7	84	20	bathroom	sun_afcoljnjfoxjtgja.tif	116388.746285	116389.004872	116389.694999	8.258942e-01	10	none	NaN	NaN
 114	7	85	18	bathroom	sun_acgyywnybuveqsro.tif	116390.464657	116390.723239	116391.413352	6.757316e-01	8	none	NaN	NaN
 114	7	86	58	bathroom	sun_axxbkopsgyouuebh.tif	116392.183025	116392.441616	116393.131744	7.758400e-01	48	none	NaN	NaN
 114	7	87	35	bathroom	sun_alotolagknyrgtsk.tif	116393.901390	116394.159977	116394.850124	7.257858e-01	25	none	NaN	NaN
 114	7	88	44	bathroom	sun_apkruvsevgegsdwp.tif	116395.619756	116395.878351	116396.568441	7.007587e-01	34	none	NaN	NaN
 114	7	89	48	bathroom	sun_aqrpegblszgcoujh.tif	116397.338127	116397.596718	116398.286989	7.841824e-01	38	none	NaN	NaN
 114	7	90	45	bathroom	sun_apkxzenqapsujocq.tif	116399.056496	116399.315085	116400.005373	7.841824e-01	35	none	NaN	NaN
 114	7	91	57	bathroom	sun_axldvoqbuvuggfmq.tif	116400.774862	116401.033453	116401.723550	7.091011e-01	47	37	116402.661236	0
 114	7	92	51	bathroom	sun_atstyziqcmkahyxk.tif	116403.435837	116403.694421	116404.384579	7.174435e-01	41	none	NaN	NaN
 114	7	93	31	bathroom	sun_akiytfaagpdsphgz.tif	116405.154197	116405.412793	116406.103057	7.925248e-01	21	none	NaN	NaN
 114	7	94	29	bathroom	sun_ahqjwnzgolcaoidx.tif	116406.872572	116407.131161	116407.821274	8.258942e-01	19	none	NaN	NaN
 114	7	95	54	bathroom	sun_auzqhkafidnkrwmo.tif	116408.590935	116408.849531	116409.539704	8.425790e-01	44	37	116411.477236	1
 114	7	96	49	bathroom	sun_asfwthctfqerjvxr.tif	116412.252896	116412.511487	116413.201588	7.758400e-01	39	none	NaN	NaN
 114	7	97	52	bathroom	sun_aunuadmjocsddsrl.tif	116413.971266	116414.229857	116414.920079	7.674977e-01	42	none	NaN	NaN
 114	7	98	28	bathroom	sun_ahijqszoswveeyji.tif	116415.689636	116415.948225	116416.638520	6.840740e-01	18	none	NaN	NaN
 114	7	99	21	bathroom	sun_aggnnqpdorgxpvce.tif	116417.408006	116417.666598	116418.356850	7.091011e-01	11	39	116420.717095	0
 114	7	100	27	bathroom	sun_ahcvzmoyaycdoftf.tif	116421.495385	116421.753974	116422.444102	7.674977e-01	17	none	NaN	NaN
 114	8	1	66	kitchen	sun_aapllqyqlykszopd.tif	116441.932289	116442.190880	116442.872792	6.757316e-01	56	none	NaN	NaN
 114	8	2	91	kitchen	sun_ahljzhgcdpomplvg.tif	116443.642314	116443.900906	116444.582823	7.591553e-01	81	37	116445.837002	1
 114	8	3	104	kitchen	sun_auticobqsbwgoppi.tif	116446.611925	116446.870513	116447.552452	8.509213e-01	94	none	NaN	NaN
 114	8	4	109	kitchen	sun_aypmqwcualkenuoe.tif	116448.321954	116448.580543	116449.262488	7.758400e-01	99	none	NaN	NaN
 114	8	5	81	kitchen	sun_aehawpgmrlhlvcow.tif	116450.031981	116450.290569	116450.972584	7.091011e-01	71	37	116451.669145	1
 114	8	6	101	kitchen	sun_aqeaevwwwjoqhzvl.tif	116452.442702	116452.701289	116453.383078	7.257858e-01	91	none	NaN	NaN
 114	8	7	85	kitchen	sun_afuyedyxivkhecmu.tif	116454.152731	116454.411318	116455.093134	8.175519e-01	75	none	NaN	NaN
 114	8	8	83	kitchen	sun_aeqdocilnnpuvuhx.tif	116455.862754	116456.121344	116456.803250	6.924164e-01	73	none	NaN	NaN
 114	8	9	80	kitchen	sun_aegoxogugdkwpmpj.tif	116457.572782	116457.831368	116458.513216	8.092095e-01	70	none	NaN	NaN
 114	8	10	86	kitchen	sun_aggjlwcdjsjcaemh.tif	116459.282807	116459.541396	116460.223353	6.673893e-01	76	39	116461.332975	1
 114	8	11	65	kitchen	sun_aamedkxepzlwuxes.tif	116462.110607	116462.369198	116463.051062	7.007587e-01	55	none	NaN	NaN
 114	8	12	98	kitchen	sun_akchetnepxlcxhsu.tif	116463.820634	116464.079227	116464.761053	7.007587e-01	88	none	NaN	NaN
 114	8	13	77	kitchen	sun_acxkpeoqbwcxfvip.tif	116465.530664	116465.789250	116466.471035	8.008671e-01	67	none	NaN	NaN
 114	8	14	96	kitchen	sun_ajcbwwvdlsvjyzje.tif	116467.240691	116467.499272	116468.181148	8.258942e-01	86	none	NaN	NaN
 114	8	15	84	kitchen	sun_aexklacwqwezaorf.tif	116468.950713	116469.209310	116469.891215	7.257858e-01	74	39	116470.932993	1
 114	8	16	79	kitchen	sun_admlmbcdswaszruo.tif	116471.703441	116471.962037	116472.643898	7.508129e-01	69	none	NaN	NaN
 114	8	17	89	kitchen	sun_agzzivivdpnawacl.tif	116473.413470	116473.672062	116474.353892	8.425790e-01	79	37	116475.845180	1
 114	8	18	92	kitchen	sun_ahpczsiumwwocjkv.tif	116476.616645	116476.875229	116477.557094	8.425790e-01	82	none	NaN	NaN
 114	8	19	93	kitchen	sun_ahspylgoovwmwvgk.tif	116478.326665	116478.585259	116479.267006	7.758400e-01	83	39	116480.037055	1
 114	8	20	87	kitchen	sun_agorklincwxrdtga.tif	116480.812461	116481.071055	116481.752837	7.841824e-01	77	37	116482.397177	1
 114	8	21	68	kitchen	sun_aaxxjlsuzvqlgylf.tif	116483.173140	116483.431726	116484.113521	6.840740e-01	58	none	NaN	NaN
 114	8	22	76	kitchen	sun_acwjdupvyjsugpay.tif	116484.883162	116485.141750	116485.823539	6.590469e-01	66	none	NaN	NaN
 114	8	23	67	kitchen	sun_aarfiyshqohlwkmo.tif	116486.593190	116486.851777	116487.533597	6.590469e-01	57	none	NaN	NaN
 114	8	24	97	kitchen	sun_ajkqhtgcbgpcwrwn.tif	116488.303218	116488.561802	116489.243691	7.508129e-01	87	none	NaN	NaN
 114	8	25	110	kitchen	sun_azmutvzbxypaceni.tif	116490.013246	116490.271835	116490.953621	7.174435e-01	100	none	NaN	NaN
 114	8	26	105	kitchen	sun_avszsnwsbuqfgzbn.tif	116491.723274	116491.981859	116492.663711	7.841824e-01	95	none	NaN	NaN
 114	8	27	70	kitchen	sun_abdxkyyxwfskuaqb.tif	116493.433297	116493.691886	116494.373803	8.509213e-01	60	none	NaN	NaN
 114	8	28	69	kitchen	sun_abdenxonkemggwsq.tif	116495.143326	116495.401912	116496.083740	7.508129e-01	59	none	NaN	NaN
 114	8	29	64	kitchen	sun_aadbddgrdsjugojn.tif	116496.853348	116497.111939	116497.793810	8.425790e-01	54	none	NaN	NaN
 114	8	30	72	kitchen	sun_abpwyqmlzafvklqo.tif	116498.563376	116498.821970	116499.503802	7.674977e-01	62	none	NaN	NaN
 114	8	31	71	kitchen	sun_abftihopvusyfakt.tif	116500.273410	116500.531987	116501.213806	7.591553e-01	61	none	NaN	NaN
 114	8	32	108	kitchen	sun_aymvwlarqodbwuoc.tif	116501.983434	116502.242024	116502.923973	8.342366e-01	98	none	NaN	NaN
 114	8	33	102	kitchen	sun_auaiucuqpdausiva.tif	116503.693460	116503.952050	116504.633920	7.341282e-01	92	none	NaN	NaN
 114	8	34	75	kitchen	sun_acgtpgfybqjmzeyw.tif	116505.403485	116505.662076	116506.343866	7.925248e-01	65	none	NaN	NaN
 114	8	35	100	kitchen	sun_amjjdeyrggfqgmom.tif	116507.113514	116507.372103	116508.053863	8.258942e-01	90	none	NaN	NaN
 114	8	36	74	kitchen	sun_acfmftudsenhrfhy.tif	116508.823547	116509.082130	116509.763951	7.674977e-01	64	none	NaN	NaN
 114	8	37	73	kitchen	sun_abrcnpqqhmjwekyf.tif	116510.533566	116510.792156	116511.474000	8.008671e-01	63	none	NaN	NaN
 114	8	38	94	kitchen	sun_ahywdevtimnqcsln.tif	116512.243580	116512.502182	116513.184056	8.175519e-01	84	none	NaN	NaN
 114	8	39	106	kitchen	sun_awcpdzzznmweyyhv.tif	116513.953620	116514.212214	116514.893981	6.924164e-01	96	none	NaN	NaN
 114	8	40	103	kitchen	sun_aunzlwrbjumxhwdj.tif	116515.663651	116515.922236	116516.603988	7.174435e-01	93	none	NaN	NaN
 114	8	41	99	kitchen	sun_akcjzhbbjlbogpdi.tif	116517.373678	116517.632264	116518.314205	7.424706e-01	89	none	NaN	NaN
 114	8	42	63	kitchen	labelme_rykdqxenmhulbdn.tif	116519.083704	116519.342291	116520.024146	8.258942e-01	53	none	NaN	NaN
 114	8	43	61	kitchen	labelme_brsyyvweiuaazfr.tif	116520.793734	116521.052321	116521.734239	7.508129e-01	51	none	NaN	NaN
 114	8	44	88	kitchen	sun_agubuxuukhzyzpdp.tif	116522.503755	116522.762342	116523.444109	7.591553e-01	78	none	NaN	NaN
 114	8	45	95	kitchen	sun_aixorpehvfykdynp.tif	116524.213781	116524.472370	116525.154203	7.091011e-01	85	none	NaN	NaN
 114	8	46	62	kitchen	labelme_kxvouciolcpqplr.tif	116525.923815	116526.182400	116526.864166	7.841824e-01	52	none	NaN	NaN
 114	8	47	78	kitchen	sun_adgqasybjyktddhj.tif	116527.633834	116527.892426	116528.574189	8.425790e-01	68	none	NaN	NaN
 114	8	48	82	kitchen	sun_aenotlpyftoioydp.tif	116529.343864	116529.602452	116530.284332	6.757316e-01	72	37	116530.956849	1
 114	8	49	90	kitchen	sun_ahdycvpopffkzzsu.tif	116531.729559	116531.988151	116532.670064	7.424706e-01	80	none	NaN	NaN
 114	8	50	107	kitchen	sun_axyyrmzcupyhlivc.tif	116533.439588	116533.698177	116534.380102	6.840740e-01	97	none	NaN	NaN
 114	8	51	109	kitchen	sun_aypmqwcualkenuoe.tif	116535.149617	116535.408204	116536.090081	7.758400e-01	99	none	NaN	NaN
 114	8	52	75	kitchen	sun_acgtpgfybqjmzeyw.tif	116536.859641	116537.118231	116537.800190	7.174435e-01	65	none	NaN	NaN
 114	8	53	76	kitchen	sun_acwjdupvyjsugpay.tif	116538.569663	116538.828259	116539.510201	6.757316e-01	66	none	NaN	NaN
 114	8	54	66	kitchen	sun_aapllqyqlykszopd.tif	116540.279698	116540.538288	116541.220171	6.507045e-01	56	none	NaN	NaN
 114	8	55	107	kitchen	sun_axyyrmzcupyhlivc.tif	116541.989720	116542.248312	116542.930170	7.007587e-01	97	37	116544.085013	1
 114	8	56	64	kitchen	sun_aadbddgrdsjugojn.tif	116544.859225	116545.117818	116545.799729	8.258942e-01	54	37	116547.908987	1
 114	8	57	101	kitchen	sun_aqeaevwwwjoqhzvl.tif	116548.679682	116548.938271	116549.620022	6.924164e-01	91	none	NaN	NaN
 114	8	58	79	kitchen	sun_admlmbcdswaszruo.tif	116550.389709	116550.648296	116551.330125	7.257858e-01	69	none	NaN	NaN
 114	8	59	61	kitchen	labelme_brsyyvweiuaazfr.tif	116552.099735	116552.358324	116553.040085	7.591553e-01	51	none	NaN	NaN
 114	8	60	92	kitchen	sun_ahpczsiumwwocjkv.tif	116553.809762	116554.068352	116554.750196	7.591553e-01	82	none	NaN	NaN
 114	8	61	63	kitchen	labelme_rykdqxenmhulbdn.tif	116555.519792	116555.778379	116556.460319	7.341282e-01	53	none	NaN	NaN
 114	8	62	93	kitchen	sun_ahspylgoovwmwvgk.tif	116557.229818	116557.488401	116558.170173	7.257858e-01	83	none	NaN	NaN
 114	8	63	106	kitchen	sun_awcpdzzznmweyyhv.tif	116558.931500	116559.190097	116559.871999	6.924164e-01	96	none	NaN	NaN
 114	8	64	83	kitchen	sun_aeqdocilnnpuvuhx.tif	116560.641530	116560.900122	116561.582029	6.840740e-01	73	none	NaN	NaN
 114	8	65	70	kitchen	sun_abdxkyyxwfskuaqb.tif	116562.351557	116562.610148	116563.291998	7.007587e-01	60	none	NaN	NaN
 114	8	66	84	kitchen	sun_aexklacwqwezaorf.tif	116564.061585	116564.320170	116565.001920	7.758400e-01	74	none	NaN	NaN
 114	8	67	78	kitchen	sun_adgqasybjyktddhj.tif	116565.771611	116566.030197	116566.712155	7.925248e-01	68	none	NaN	NaN
 114	8	68	77	kitchen	sun_acxkpeoqbwcxfvip.tif	116567.481634	116567.740230	116568.422019	7.841824e-01	67	none	NaN	NaN
 114	8	69	74	kitchen	sun_acfmftudsenhrfhy.tif	116569.191664	116569.450250	116570.132924	8.092095e-01	64	none	NaN	NaN
 114	8	70	94	kitchen	sun_ahywdevtimnqcsln.tif	116570.901688	116571.160277	116571.842119	7.091011e-01	84	39	116573.052833	1
 114	8	71	95	kitchen	sun_aixorpehvfykdynp.tif	116573.829591	116574.088180	116574.769943	6.673893e-01	85	39	116575.725145	1
 114	8	72	73	kitchen	sun_abrcnpqqhmjwekyf.tif	116576.498899	116576.757488	116577.439295	8.008671e-01	63	37	116578.117047	1
 114	8	73	88	kitchen	sun_agubuxuukhzyzpdp.tif	116578.892936	116579.151526	116579.833280	8.175519e-01	78	none	NaN	NaN
 114	8	74	98	kitchen	sun_akchetnepxlcxhsu.tif	116580.602965	116580.861556	116581.543426	8.008671e-01	88	none	NaN	NaN
 114	8	75	80	kitchen	sun_aegoxogugdkwpmpj.tif	116582.312992	116582.571580	116583.253526	6.673893e-01	70	39	116584.021114	1
 114	8	76	65	kitchen	sun_aamedkxepzlwuxes.tif	116584.798789	116585.057380	116585.739250	7.674977e-01	55	none	NaN	NaN
 114	8	77	103	kitchen	sun_aunzlwrbjumxhwdj.tif	116586.508815	116586.767403	116587.449210	7.424706e-01	93	none	NaN	NaN
 114	8	78	86	kitchen	sun_aggjlwcdjsjcaemh.tif	116588.218843	116588.477434	116589.159343	8.092095e-01	76	none	NaN	NaN
 114	8	79	71	kitchen	sun_abftihopvusyfakt.tif	116589.928869	116590.187456	116590.869410	7.424706e-01	61	none	NaN	NaN
 114	8	80	81	kitchen	sun_aehawpgmrlhlvcow.tif	116591.638899	116591.897484	116592.579344	8.342366e-01	71	none	NaN	NaN
 114	8	81	96	kitchen	sun_ajcbwwvdlsvjyzje.tif	116593.348925	116593.607515	116594.289295	6.590469e-01	86	none	NaN	NaN
 114	8	82	102	kitchen	sun_auaiucuqpdausiva.tif	116595.058949	116595.317538	116595.999433	6.924164e-01	92	none	NaN	NaN
 114	8	83	62	kitchen	labelme_kxvouciolcpqplr.tif	116596.768978	116597.027567	116597.709486	7.341282e-01	52	none	NaN	NaN
 114	8	84	108	kitchen	sun_aymvwlarqodbwuoc.tif	116598.479005	116598.737596	116599.419341	6.590469e-01	98	none	NaN	NaN
 114	8	85	72	kitchen	sun_abpwyqmlzafvklqo.tif	116600.189037	116600.447621	116601.129572	8.175519e-01	62	none	NaN	NaN
 114	8	86	87	kitchen	sun_agorklincwxrdtga.tif	116601.899059	116602.157645	116602.839566	7.341282e-01	77	none	NaN	NaN
 114	8	87	90	kitchen	sun_ahdycvpopffkzzsu.tif	116603.609086	116603.867675	116604.549636	7.925248e-01	80	none	NaN	NaN
 114	8	88	82	kitchen	sun_aenotlpyftoioydp.tif	116605.319111	116605.577705	116606.259490	6.840740e-01	72	none	NaN	NaN
 114	8	89	100	kitchen	sun_amjjdeyrggfqgmom.tif	116607.029134	116607.287728	116607.969585	7.174435e-01	90	39	116614.037011	1
 114	8	90	67	kitchen	sun_aarfiyshqohlwkmo.tif	116614.811849	116615.070434	116615.752273	7.091011e-01	57	none	NaN	NaN
 114	8	91	104	kitchen	sun_auticobqsbwgoppi.tif	116616.521874	116616.780463	116617.462394	8.092095e-01	94	none	NaN	NaN
 114	8	92	110	kitchen	sun_azmutvzbxypaceni.tif	116618.231899	116618.490490	116619.172388	7.674977e-01	100	none	NaN	NaN
 114	8	93	105	kitchen	sun_avszsnwsbuqfgzbn.tif	116619.941928	116620.200516	116620.882394	8.175519e-01	95	none	NaN	NaN
 114	8	94	97	kitchen	sun_ajkqhtgcbgpcwrwn.tif	116621.651900	116621.910551	116622.592336	8.342366e-01	87	none	NaN	NaN
 114	8	95	85	kitchen	sun_afuyedyxivkhecmu.tif	116623.361986	116623.620573	116624.302482	8.342366e-01	75	none	NaN	NaN
 114	8	96	89	kitchen	sun_agzzivivdpnawacl.tif	116625.072011	116625.330596	116626.012537	7.925248e-01	79	none	NaN	NaN
 114	8	97	91	kitchen	sun_ahljzhgcdpomplvg.tif	116626.782036	116627.040624	116627.722502	6.673893e-01	81	none	NaN	NaN
 114	8	98	99	kitchen	sun_akcjzhbbjlbogpdi.tif	116628.492063	116628.750656	116629.432648	6.507045e-01	89	none	NaN	NaN
 114	8	99	68	kitchen	sun_aaxxjlsuzvqlgylf.tif	116630.202093	116630.460681	116631.142484	6.757316e-01	58	none	NaN	NaN
 114	8	100	69	kitchen	sun_abdenxonkemggwsq.tif	116631.912121	116632.170711	116632.852537	6.507045e-01	59	none	NaN	NaN
 114	9	1	11	bathroom	labelme_sfxiulhjbhlyiyt.tif	116659.472749	116659.731342	116660.379910	7.758400e-01	1	none	NaN	NaN
 114	9	2	24	bathroom	sun_agrwbmhcpmfuwmsg.tif	116661.149408	116661.408000	116662.056568	8.509213e-01	14	none	NaN	NaN
 114	9	3	60	bathroom	sun_azqyogdvyhahyram.tif	116662.826070	116663.084658	116663.733225	7.007587e-01	50	none	NaN	NaN
 114	9	4	19	bathroom	sun_aclfzgynxzxlbepz.tif	116664.502732	116664.761317	116665.409788	7.925248e-01	9	none	NaN	NaN
 114	9	5	14	bathroom	sun_abapwbhyhkfixyex.tif	116666.179393	116666.437979	116667.086484	8.175519e-01	4	none	NaN	NaN
 114	9	6	15	bathroom	sun_abjtwfukuwddzted.tif	116667.856051	116668.114641	116668.763211	6.924164e-01	5	39	116669.549125	1
 114	9	7	21	bathroom	sun_aggnnqpdorgxpvce.tif	116670.325163	116670.583755	116671.232166	7.508129e-01	11	none	NaN	NaN
 114	9	8	38	bathroom	sun_anhioqovhscjqqwb.tif	116672.001825	116672.260415	116672.908821	6.507045e-01	28	none	NaN	NaN
 114	9	9	44	bathroom	sun_apkruvsevgegsdwp.tif	116673.678486	116673.937075	116674.585628	6.590469e-01	34	none	NaN	NaN
 114	9	10	56	bathroom	sun_awnqiikzaispgmwo.tif	116675.355147	116675.613736	116676.262311	6.590469e-01	46	none	NaN	NaN
 114	9	11	16	bathroom	sun_acduarbnmmoglmiv.tif	116677.031806	116677.290402	116677.938895	8.258942e-01	6	none	NaN	NaN
 114	9	12	45	bathroom	sun_apkxzenqapsujocq.tif	116678.708468	116678.967059	116679.615538	8.008671e-01	35	none	NaN	NaN
 114	9	13	18	bathroom	sun_acgyywnybuveqsro.tif	116680.385129	116680.643717	116681.292100	8.425790e-01	8	none	NaN	NaN
 114	9	14	20	bathroom	sun_afcoljnjfoxjtgja.tif	116682.061793	116682.320380	116682.968947	7.758400e-01	10	37	116684.141088	1
 114	9	15	49	bathroom	sun_asfwthctfqerjvxr.tif	116684.914616	116685.173202	116685.821605	8.092095e-01	39	none	NaN	NaN
 114	9	16	31	bathroom	sun_akiytfaagpdsphgz.tif	116686.591276	116686.849866	116687.498425	7.591553e-01	21	none	NaN	NaN
 114	9	17	17	bathroom	sun_acegryoqftbzowsg.tif	116688.267933	116688.526529	116689.175029	7.424706e-01	7	none	NaN	NaN
 114	9	18	54	bathroom	sun_auzqhkafidnkrwmo.tif	116689.944594	116690.203188	116690.851734	8.509213e-01	44	none	NaN	NaN
 114	9	19	50	bathroom	sun_aspsyogrekjtfozg.tif	116691.621261	116691.879848	116692.528320	8.175519e-01	40	none	NaN	NaN
 114	9	20	34	bathroom	sun_alkosphxlxwjwgjd.tif	116693.297914	116693.556506	116694.205080	7.341282e-01	24	37	116696.461162	1
 114	9	21	53	bathroom	sun_ausgutylgojavyoq.tif	116697.235152	116697.493738	116698.142194	6.840740e-01	43	none	NaN	NaN
 114	9	22	13	bathroom	sun_aavhrsfjbserjtht.tif	116698.911809	116699.170398	116699.818899	6.673893e-01	3	none	NaN	NaN
 114	9	23	52	bathroom	sun_aunuadmjocsddsrl.tif	116700.588473	116700.847064	116701.495501	6.507045e-01	42	none	NaN	NaN
 114	9	24	12	bathroom	sun_aapitsgbtktqubfy.tif	116702.265133	116702.523727	116703.172172	7.591553e-01	2	none	NaN	NaN
 114	9	25	39	bathroom	sun_anryaplzeujmzfkd.tif	116703.941797	116704.200378	116704.848833	7.341282e-01	29	none	NaN	NaN
 114	9	26	29	bathroom	sun_ahqjwnzgolcaoidx.tif	116705.618451	116705.877042	116706.525462	7.091011e-01	19	none	NaN	NaN
 114	9	27	26	bathroom	sun_ahaulkltgpkeeemi.tif	116707.295115	116707.553705	116708.202217	6.673893e-01	16	37	116709.125124	1
 114	9	28	51	bathroom	sun_atstyziqcmkahyxk.tif	116709.897693	116710.156280	116710.804791	7.091011e-01	41	none	NaN	NaN
 114	9	29	41	bathroom	sun_aoybiabnpadelefl.tif	116711.574352	116711.832945	116712.481481	7.841824e-01	31	none	NaN	NaN
 114	9	30	28	bathroom	sun_ahijqszoswveeyji.tif	116713.251013	116713.509604	116714.158163	7.424706e-01	18	none	NaN	NaN
 114	9	31	57	bathroom	sun_axldvoqbuvuggfmq.tif	116714.927669	116715.186266	116715.834847	7.925248e-01	47	none	NaN	NaN
 114	9	32	32	bathroom	sun_aleqenyvunhactkl.tif	116716.604336	116716.862926	116717.511389	6.924164e-01	22	39	116719.429244	1
 114	9	33	25	bathroom	sun_agyqfjcfkdcydepw.tif	116720.199557	116720.458149	116721.106706	8.008671e-01	15	none	NaN	NaN
 114	9	34	30	bathroom	sun_ajlawzvmubibwbpy.tif	116721.876226	116722.134814	116722.783204	8.258942e-01	20	none	NaN	NaN
 114	9	35	58	bathroom	sun_axxbkopsgyouuebh.tif	116723.552887	116723.811476	116724.460009	7.508129e-01	48	none	NaN	NaN
 114	9	36	48	bathroom	sun_aqrpegblszgcoujh.tif	116725.229545	116725.488136	116726.136566	7.674977e-01	38	none	NaN	NaN
 114	9	37	36	bathroom	sun_ambriybtogmepttm.tif	116726.906205	116727.164800	116727.813208	8.175519e-01	26	none	NaN	NaN
 114	9	38	33	bathroom	sun_aljolscmmzydegqp.tif	116728.582865	116728.841455	116729.490021	7.674977e-01	23	none	NaN	NaN
 114	9	39	42	bathroom	sun_apeeialkgkuxddgh.tif	116730.259527	116730.518112	116731.166513	7.841824e-01	32	none	NaN	NaN
 114	9	40	55	bathroom	sun_avhrdrntsqrjzccq.tif	116731.936190	116732.194776	116732.843227	6.757316e-01	45	37	116734.189185	1
 114	9	41	46	bathroom	sun_apmqjbnwghzuhhzh.tif	116734.964190	116735.222774	116735.871183	6.840740e-01	36	none	NaN	NaN
 114	9	42	22	bathroom	sun_agguqiubmwhqqunb.tif	116736.640850	116736.899437	116737.547872	6.590469e-01	12	none	NaN	NaN
 114	9	43	27	bathroom	sun_ahcvzmoyaycdoftf.tif	116738.317509	116738.576094	116739.224781	6.757316e-01	17	none	NaN	NaN
