subject	block	trial	texture	category	image	trialOnset	itiOnset	trialEnd	iti	EEGtrigger	responseKey	responseTime	accuracy
121	1	1	13	bathroom	sun_aavhrsfjbserjtht.tif	1274795.950456	1274796.209047	1274796.949268	7.507321e-01	3	none	NaN	NaN
121	1	2	49	bathroom	sun_asfwthctfqerjvxr.tif	1274797.718877	1274797.977461	1274798.717598	8.424883e-01	39	none	NaN	NaN
121	1	3	25	bathroom	sun_agyqfjcfkdcydepw.tif	1274799.487291	1274799.745883	1274800.486075	6.589760e-01	15	37	1274803.971079	0
121	1	4	38	bathroom	sun_anhioqovhscjqqwb.tif	1274804.742492	1274805.001089	1274805.741284	7.840980e-01	28	none	NaN	NaN
121	1	5	37	bathroom	sun_amzlamotzwfkwjco.tif	1274806.510915	1274806.769499	1274807.509579	7.173662e-01	27	none	NaN	NaN
121	1	6	16	bathroom	sun_acduarbnmmoglmiv.tif	1274808.279328	1274808.537920	1274809.278160	6.923418e-01	6	none	NaN	NaN
121	1	7	41	bathroom	sun_aoybiabnpadelefl.tif	1274810.047748	1274810.306340	1274811.046458	6.923418e-01	31	39	1274812.443267	1
121	1	8	55	bathroom	sun_avhrdrntsqrjzccq.tif	1274813.217551	1274813.476141	1274814.216386	6.923418e-01	45	none	NaN	NaN
121	1	9	60	bathroom	sun_azqyogdvyhahyram.tif	1274814.985967	1274815.244558	1274815.984657	7.423907e-01	50	37	1274817.547370	1
121	1	10	29	bathroom	sun_ahqjwnzgolcaoidx.tif	1274818.322607	1274818.581198	1274819.321477	7.340492e-01	19	none	NaN	NaN
121	1	11	15	bathroom	sun_abjtwfukuwddzted.tif	1274820.091022	1274820.349609	1274821.089805	8.341468e-01	5	37	1274822.915362	1
121	1	12	39	bathroom	sun_anryaplzeujmzfkd.tif	1274823.686244	1274823.944841	1274824.684993	6.756589e-01	29	none	NaN	NaN
121	1	13	17	bathroom	sun_acegryoqftbzowsg.tif	1274825.454666	1274825.713254	1274826.453521	8.091224e-01	7	none	NaN	NaN
121	1	14	30	bathroom	sun_ajlawzvmubibwbpy.tif	1274827.223085	1274827.481675	1274828.221816	8.174639e-01	20	none	NaN	NaN
121	1	15	23	bathroom	sun_aghyqhbptboemmoq.tif	1274828.991502	1274829.250089	1274829.990265	7.840980e-01	13	none	NaN	NaN
121	1	16	53	bathroom	sun_ausgutylgojavyoq.tif	1274830.759917	1274831.018508	1274831.758605	7.507321e-01	43	none	NaN	NaN
121	1	17	59	bathroom	sun_axyrejkiiaqiurjk.tif	1274832.528333	1274832.786926	1274833.527133	7.423907e-01	49	none	NaN	NaN
121	1	18	58	bathroom	sun_axxbkopsgyouuebh.tif	1274834.296750	1274834.555342	1274835.295477	7.340492e-01	48	none	NaN	NaN
121	1	19	14	bathroom	sun_abapwbhyhkfixyex.tif	1274836.065169	1274836.323763	1274837.063949	7.090248e-01	4	none	NaN	NaN
121	1	20	33	bathroom	sun_aljolscmmzydegqp.tif	1274837.833586	1274838.092176	1274838.832392	6.923418e-01	23	none	NaN	NaN
121	1	21	46	bathroom	sun_apmqjbnwghzuhhzh.tif	1274839.602001	1274839.860592	1274840.600875	7.340492e-01	36	37	1274844.643322	0
121	1	22	18	bathroom	sun_acgyywnybuveqsro.tif	1274845.416095	1274845.674684	1274846.414894	6.756589e-01	8	none	NaN	NaN
121	1	23	19	bathroom	sun_aclfzgynxzxlbepz.tif	1274847.184509	1274847.443101	1274848.183225	7.757565e-01	9	none	NaN	NaN
121	1	24	11	bathroom	labelme_sfxiulhjbhlyiyt.tif	1274848.952926	1274849.211518	1274849.951686	6.673174e-01	1	37	1274851.051322	0
121	1	25	27	bathroom	sun_ahcvzmoyaycdoftf.tif	1274851.822433	1274852.081025	1274852.821199	8.258053e-01	17	none	NaN	NaN
121	1	26	21	bathroom	sun_aggnnqpdorgxpvce.tif	1274853.590855	1274853.849443	1274854.589651	7.590736e-01	11	none	NaN	NaN
121	1	27	42	bathroom	sun_apeeialkgkuxddgh.tif	1274855.359269	1274855.617826	1274856.358050	7.590736e-01	32	none	NaN	NaN
121	1	28	56	bathroom	sun_awnqiikzaispgmwo.tif	1274857.127687	1274857.386280	1274858.126397	8.174639e-01	46	none	NaN	NaN
121	1	29	44	bathroom	sun_apkruvsevgegsdwp.tif	1274858.896105	1274859.154694	1274859.894927	7.423907e-01	34	none	NaN	NaN
121	1	30	20	bathroom	sun_afcoljnjfoxjtgja.tif	1274860.664519	1274860.923109	1274861.663310	7.173662e-01	10	none	NaN	NaN
121	1	31	28	bathroom	sun_ahijqszoswveeyji.tif	1274862.432933	1274862.691525	1274863.431833	8.424883e-01	18	none	NaN	NaN
121	1	32	26	bathroom	sun_ahaulkltgpkeeemi.tif	1274864.201358	1274864.459947	1274865.200045	7.674151e-01	16	none	NaN	NaN
121	1	33	22	bathroom	sun_agguqiubmwhqqunb.tif	1274865.969777	1274866.228359	1274866.968588	6.923418e-01	12	none	NaN	NaN
121	1	34	47	bathroom	sun_apynckhmoftszqoq.tif	1274867.738189	1274867.996780	1274868.736955	7.590736e-01	37	none	NaN	NaN
121	1	35	45	bathroom	sun_apkxzenqapsujocq.tif	1274869.506607	1274869.765194	1274870.505351	8.174639e-01	35	none	NaN	NaN
121	1	36	34	bathroom	sun_alkosphxlxwjwgjd.tif	1274871.275028	1274871.533613	1274872.273762	8.341468e-01	24	none	NaN	NaN
121	1	37	12	bathroom	sun_aapitsgbtktqubfy.tif	1274873.043442	1274873.302032	1274874.042232	8.091224e-01	2	none	NaN	NaN
121	1	38	52	bathroom	sun_aunuadmjocsddsrl.tif	1274874.811858	1274875.070447	1274875.810563	7.090248e-01	42	none	NaN	NaN
121	1	39	50	bathroom	sun_aspsyogrekjtfozg.tif	1274876.580275	1274876.838863	1274877.579020	7.924395e-01	40	none	NaN	NaN
121	1	40	54	bathroom	sun_auzqhkafidnkrwmo.tif	1274878.348695	1274878.607283	1274879.347565	6.506345e-01	44	none	NaN	NaN
121	1	41	31	bathroom	sun_akiytfaagpdsphgz.tif	1274880.117113	1274880.375698	1274881.115830	6.589760e-01	21	39	1274883.595140	1
121	1	42	48	bathroom	sun_aqrpegblszgcoujh.tif	1274884.371322	1274884.629912	1274885.370088	8.091224e-01	38	none	NaN	NaN
121	1	43	35	bathroom	sun_alotolagknyrgtsk.tif	1274886.139740	1274886.398329	1274887.138505	8.007809e-01	25	none	NaN	NaN
121	1	44	24	bathroom	sun_agrwbmhcpmfuwmsg.tif	1274887.908159	1274888.166745	1274888.906921	7.257077e-01	14	none	NaN	NaN
121	1	45	40	bathroom	sun_aofnryafpsjimzsb.tif	1274889.676575	1274889.935163	1274890.675360	7.840980e-01	30	none	NaN	NaN
121	1	46	36	bathroom	sun_ambriybtogmepttm.tif	1274891.444992	1274891.703585	1274892.443725	7.757565e-01	26	none	NaN	NaN
121	1	47	57	bathroom	sun_axldvoqbuvuggfmq.tif	1274893.213412	1274893.471995	1274894.212175	8.258053e-01	47	none	NaN	NaN
121	1	48	43	bathroom	sun_apjevzvycyhuqghb.tif	1274894.981824	1274895.240416	1274895.980515	6.506345e-01	33	none	NaN	NaN
121	1	49	32	bathroom	sun_aleqenyvunhactkl.tif	1274896.750245	1274897.008830	1274897.748962	7.006833e-01	22	none	NaN	NaN
121	1	50	51	bathroom	sun_atstyziqcmkahyxk.tif	1274898.518658	1274898.777247	1274899.517398	8.007809e-01	41	none	NaN	NaN
121	1	51	59	bathroom	sun_axyrejkiiaqiurjk.tif	1274900.287079	1274900.545663	1274901.285924	7.006833e-01	49	none	NaN	NaN
121	1	52	11	bathroom	labelme_sfxiulhjbhlyiyt.tif	1274902.055498	1274902.314083	1274903.054332	7.340492e-01	1	none	NaN	NaN
121	1	53	25	bathroom	sun_agyqfjcfkdcydepw.tif	1274903.823916	1274904.082504	1274904.822595	7.507321e-01	15	none	NaN	NaN
121	1	54	16	bathroom	sun_acduarbnmmoglmiv.tif	1274905.592329	1274905.850919	1274906.591159	7.173662e-01	6	none	NaN	NaN
121	1	55	21	bathroom	sun_aggnnqpdorgxpvce.tif	1274907.360746	1274907.619333	1274908.359595	7.590736e-01	11	none	NaN	NaN
121	1	56	51	bathroom	sun_atstyziqcmkahyxk.tif	1274909.129164	1274909.387756	1274910.128023	7.924395e-01	41	none	NaN	NaN
121	1	57	32	bathroom	sun_aleqenyvunhactkl.tif	1274910.897580	1274911.156173	1274911.896234	7.924395e-01	22	none	NaN	NaN
121	1	58	33	bathroom	sun_aljolscmmzydegqp.tif	1274912.657656	1274912.916247	1274913.656306	7.674151e-01	23	none	NaN	NaN
121	1	59	18	bathroom	sun_acgyywnybuveqsro.tif	1274914.426076	1274914.684664	1274915.424892	7.090248e-01	8	none	NaN	NaN
121	1	60	36	bathroom	sun_ambriybtogmepttm.tif	1274916.194494	1274916.453082	1274917.193158	7.840980e-01	26	none	NaN	NaN
121	1	61	13	bathroom	sun_aavhrsfjbserjtht.tif	1274917.962908	1274918.221496	1274918.961703	8.508297e-01	3	none	NaN	NaN
121	1	62	56	bathroom	sun_awnqiikzaispgmwo.tif	1274919.731323	1274919.989914	1274920.730058	7.757565e-01	46	37	1274923.075313	0
121	1	63	14	bathroom	sun_abapwbhyhkfixyex.tif	1274923.852071	1274924.110663	1274924.850743	6.589760e-01	4	none	NaN	NaN
121	1	64	45	bathroom	sun_apkxzenqapsujocq.tif	1274925.620490	1274925.879082	1274926.619359	8.091224e-01	35	none	NaN	NaN
121	1	65	38	bathroom	sun_anhioqovhscjqqwb.tif	1274927.388907	1274927.647496	1274928.387733	8.258053e-01	28	37	1274929.619214	1
121	1	66	44	bathroom	sun_apkruvsevgegsdwp.tif	1274930.391874	1274930.650466	1274931.390627	8.007809e-01	34	37	1274932.435251	1
121	1	67	35	bathroom	sun_alotolagknyrgtsk.tif	1274933.211338	1274933.469926	1274934.210186	6.673174e-01	25	none	NaN	NaN
121	1	68	55	bathroom	sun_avhrdrntsqrjzccq.tif	1274934.979756	1274935.238345	1274935.978597	6.756589e-01	45	39	1274938.035099	1
121	1	69	22	bathroom	sun_agguqiubmwhqqunb.tif	1274938.808540	1274939.067133	1274939.807353	6.840004e-01	12	none	NaN	NaN
121	1	70	24	bathroom	sun_agrwbmhcpmfuwmsg.tif	1274940.576962	1274940.835552	1274941.575636	7.423907e-01	14	none	NaN	NaN
121	1	71	47	bathroom	sun_apynckhmoftszqoq.tif	1274942.345377	1274942.603966	1274943.344211	8.341468e-01	37	none	NaN	NaN
121	1	72	53	bathroom	sun_ausgutylgojavyoq.tif	1274944.113796	1274944.372383	1274945.112661	7.590736e-01	43	none	NaN	NaN
121	1	73	15	bathroom	sun_abjtwfukuwddzted.tif	1274945.882213	1274946.140802	1274946.881083	8.007809e-01	5	none	NaN	NaN
121	1	74	28	bathroom	sun_ahijqszoswveeyji.tif	1274947.650627	1274947.909217	1274948.649313	7.257077e-01	18	none	NaN	NaN
121	1	75	26	bathroom	sun_ahaulkltgpkeeemi.tif	1274949.410703	1274949.669292	1274950.409420	8.174639e-01	16	37	1274951.571095	1
121	1	76	58	bathroom	sun_axxbkopsgyouuebh.tif	1274952.346944	1274952.605534	1274953.345682	6.840004e-01	48	none	NaN	NaN
121	1	77	17	bathroom	sun_acegryoqftbzowsg.tif	1274954.115361	1274954.373953	1274955.114064	6.840004e-01	7	37	1274956.043259	1
121	1	78	54	bathroom	sun_auzqhkafidnkrwmo.tif	1274956.818037	1274957.076626	1274957.816737	8.341468e-01	44	none	NaN	NaN
121	1	79	30	bathroom	sun_ajlawzvmubibwbpy.tif	1274958.586454	1274958.845043	1274959.585294	7.173662e-01	20	none	NaN	NaN
121	1	80	19	bathroom	sun_aclfzgynxzxlbepz.tif	1274960.354871	1274960.613459	1274961.353650	8.258053e-01	9	none	NaN	NaN
121	1	81	60	bathroom	sun_azqyogdvyhahyram.tif	1274962.123288	1274962.381877	1274963.122159	7.257077e-01	50	none	NaN	NaN
121	1	82	50	bathroom	sun_aspsyogrekjtfozg.tif	1274963.891705	1274964.150292	1274964.890404	7.757565e-01	40	none	NaN	NaN
121	1	83	42	bathroom	sun_apeeialkgkuxddgh.tif	1274965.660125	1274965.918710	1274966.658782	7.006833e-01	32	none	NaN	NaN
121	1	84	49	bathroom	sun_asfwthctfqerjvxr.tif	1274967.428538	1274967.687128	1274968.427270	7.674151e-01	39	none	NaN	NaN
121	1	85	27	bathroom	sun_ahcvzmoyaycdoftf.tif	1274969.196960	1274969.455571	1274970.195708	7.006833e-01	17	none	NaN	NaN
121	1	86	12	bathroom	sun_aapitsgbtktqubfy.tif	1274970.965375	1274971.223961	1274971.964106	7.257077e-01	2	none	NaN	NaN
121	1	87	23	bathroom	sun_aghyqhbptboemmoq.tif	1274972.733789	1274972.992378	1274973.732506	6.506345e-01	13	37	1274974.779306	0
121	1	88	20	bathroom	sun_afcoljnjfoxjtgja.tif	1274975.553244	1274975.811840	1274976.552115	8.424883e-01	10	none	NaN	NaN
121	1	89	40	bathroom	sun_aofnryafpsjimzsb.tif	1274977.321665	1274977.580254	1274978.320459	6.589760e-01	30	none	NaN	NaN
121	1	90	39	bathroom	sun_anryaplzeujmzfkd.tif	1274979.090083	1274979.348676	1274980.088748	6.840004e-01	29	none	NaN	NaN
121	1	91	43	bathroom	sun_apjevzvycyhuqghb.tif	1274980.858502	1274981.117082	1274981.857160	8.258053e-01	33	none	NaN	NaN
121	1	92	34	bathroom	sun_alkosphxlxwjwgjd.tif	1274982.626915	1274982.885509	1274983.625762	6.673174e-01	24	none	NaN	NaN
121	1	93	41	bathroom	sun_aoybiabnpadelefl.tif	1274984.395336	1274984.653924	1274985.394027	8.424883e-01	31	none	NaN	NaN
121	1	94	46	bathroom	sun_apmqjbnwghzuhhzh.tif	1274986.163753	1274986.422343	1274987.162602	6.756589e-01	36	none	NaN	NaN
121	1	95	57	bathroom	sun_axldvoqbuvuggfmq.tif	1274987.932172	1274988.190760	1274988.930845	8.508297e-01	47	none	NaN	NaN
121	1	96	31	bathroom	sun_akiytfaagpdsphgz.tif	1274989.700592	1274989.959179	1274990.699338	7.507321e-01	21	37	1274993.995307	1
121	1	97	37	bathroom	sun_amzlamotzwfkwjco.tif	1274994.772065	1274995.030689	1274995.770743	7.090248e-01	27	none	NaN	NaN
121	1	98	29	bathroom	sun_ahqjwnzgolcaoidx.tif	1274996.532348	1274996.790942	1274997.531096	7.674151e-01	19	none	NaN	NaN
121	1	99	52	bathroom	sun_aunuadmjocsddsrl.tif	1274998.300770	1274998.559354	1274999.299516	7.924395e-01	42	none	NaN	NaN
121	1	100	48	bathroom	sun_aqrpegblszgcoujh.tif	1275000.069188	1275000.327773	1275001.067987	6.673174e-01	38	none	NaN	NaN
121	2	1	62	kitchen	labelme_kxvouciolcpqplr.tif	1275035.729480	1275035.988067	1275036.678176	8.258053e-01	52	none	NaN	NaN
121	2	2	82	kitchen	sun_aenotlpyftoioydp.tif	1275037.447851	1275037.706441	1275038.396486	7.006833e-01	72	none	NaN	NaN
121	2	3	80	kitchen	sun_aegoxogugdkwpmpj.tif	1275039.166220	1275039.424809	1275040.114996	8.258053e-01	70	none	NaN	NaN
121	2	4	84	kitchen	sun_aexklacwqwezaorf.tif	1275040.884584	1275041.143175	1275041.833242	7.507321e-01	74	none	NaN	NaN
121	2	5	88	kitchen	sun_agubuxuukhzyzpdp.tif	1275042.602952	1275042.861537	1275043.551765	7.423907e-01	78	none	NaN	NaN
121	2	6	85	kitchen	sun_afuyedyxivkhecmu.tif	1275044.321317	1275044.579912	1275045.270098	7.924395e-01	75	37	1275046.651030	1
121	2	7	73	kitchen	sun_abrcnpqqhmjwekyf.tif	1275047.424391	1275047.682982	1275048.373162	7.590736e-01	63	none	NaN	NaN
121	2	8	99	kitchen	sun_akcjzhbbjlbogpdi.tif	1275049.142761	1275049.401357	1275050.091585	7.257077e-01	89	none	NaN	NaN
121	2	9	75	kitchen	sun_acgtpgfybqjmzeyw.tif	1275050.861129	1275051.119718	1275051.809890	7.590736e-01	65	none	NaN	NaN
121	2	10	92	kitchen	sun_ahpczsiumwwocjkv.tif	1275052.579493	1275052.838084	1275053.528097	7.590736e-01	82	none	NaN	NaN
121	2	11	67	kitchen	sun_aarfiyshqohlwkmo.tif	1275054.297864	1275054.556452	1275055.246526	7.507321e-01	57	37	1275056.107039	1
121	2	12	89	kitchen	sun_agzzivivdpnawacl.tif	1275056.883753	1275057.142341	1275057.832363	7.090248e-01	79	none	NaN	NaN
121	2	13	87	kitchen	sun_agorklincwxrdtga.tif	1275058.593782	1275058.852369	1275059.542548	8.341468e-01	77	none	NaN	NaN
121	2	14	70	kitchen	sun_abdxkyyxwfskuaqb.tif	1275060.312154	1275060.570738	1275061.260923	7.006833e-01	60	none	NaN	NaN
121	2	15	69	kitchen	sun_abdenxonkemggwsq.tif	1275062.030518	1275062.289105	1275062.979322	6.506345e-01	59	none	NaN	NaN
121	2	16	66	kitchen	sun_aapllqyqlykszopd.tif	1275063.748880	1275064.007479	1275064.697697	7.340492e-01	56	37	1275065.555066	0
121	2	17	104	kitchen	sun_auticobqsbwgoppi.tif	1275066.326434	1275066.585025	1275067.275203	8.007809e-01	94	none	NaN	NaN
121	2	18	90	kitchen	sun_ahdycvpopffkzzsu.tif	1275068.044801	1275068.303391	1275068.993503	6.840004e-01	80	none	NaN	NaN
121	2	19	96	kitchen	sun_ajcbwwvdlsvjyzje.tif	1275069.763170	1275070.021756	1275070.711854	6.923418e-01	86	none	NaN	NaN
121	2	20	65	kitchen	sun_aamedkxepzlwuxes.tif	1275071.481540	1275071.740129	1275072.430171	7.090248e-01	55	none	NaN	NaN
121	2	21	106	kitchen	sun_awcpdzzznmweyyhv.tif	1275073.199901	1275073.458494	1275074.148538	7.674151e-01	96	none	NaN	NaN
121	2	22	83	kitchen	sun_aeqdocilnnpuvuhx.tif	1275074.918276	1275075.176862	1275075.867046	8.424883e-01	73	none	NaN	NaN
121	2	23	64	kitchen	sun_aadbddgrdsjugojn.tif	1275076.636638	1275076.895225	1275077.585314	7.840980e-01	54	none	NaN	NaN
121	2	24	61	kitchen	labelme_brsyyvweiuaazfr.tif	1275078.355006	1275078.613594	1275079.303780	7.173662e-01	51	none	NaN	NaN
121	2	25	107	kitchen	sun_axyyrmzcupyhlivc.tif	1275080.073369	1275080.331962	1275081.022086	7.340492e-01	97	none	NaN	NaN
121	2	26	91	kitchen	sun_ahljzhgcdpomplvg.tif	1275081.791745	1275082.050331	1275082.740479	6.589760e-01	81	none	NaN	NaN
121	2	27	94	kitchen	sun_ahywdevtimnqcsln.tif	1275083.510111	1275083.768699	1275084.458836	7.507321e-01	84	none	NaN	NaN
121	2	28	78	kitchen	sun_adgqasybjyktddhj.tif	1275085.228475	1275085.487068	1275086.177281	7.257077e-01	68	none	NaN	NaN
121	2	29	102	kitchen	sun_auaiucuqpdausiva.tif	1275086.946845	1275087.205435	1275087.895557	6.923418e-01	92	none	NaN	NaN
121	2	30	95	kitchen	sun_aixorpehvfykdynp.tif	1275088.665212	1275088.923805	1275089.614025	6.673174e-01	85	none	NaN	NaN
121	2	31	81	kitchen	sun_aehawpgmrlhlvcow.tif	1275090.383576	1275090.642168	1275091.332277	7.006833e-01	71	37	1275092.459149	0
121	2	32	74	kitchen	sun_acfmftudsenhrfhy.tif	1275093.236400	1275093.494989	1275094.185067	8.341468e-01	64	37	1275095.019046	1
121	2	33	72	kitchen	sun_abpwyqmlzafvklqo.tif	1275095.797272	1275096.055857	1275096.746056	7.090248e-01	62	none	NaN	NaN
121	2	34	109	kitchen	sun_aypmqwcualkenuoe.tif	1275097.515638	1275097.774229	1275098.464426	7.173662e-01	99	37	1275099.091055	1
121	2	35	63	kitchen	labelme_rykdqxenmhulbdn.tif	1275099.867966	1275100.126558	1275100.816740	7.757565e-01	53	none	NaN	NaN
121	2	36	105	kitchen	sun_avszsnwsbuqfgzbn.tif	1275101.586334	1275101.844923	1275102.535080	7.090248e-01	95	none	NaN	NaN
121	2	37	98	kitchen	sun_akchetnepxlcxhsu.tif	1275103.304698	1275103.563289	1275104.253506	8.091224e-01	88	none	NaN	NaN
121	2	38	86	kitchen	sun_aggjlwcdjsjcaemh.tif	1275105.023066	1275105.281657	1275105.971853	6.673174e-01	76	none	NaN	NaN
121	2	39	68	kitchen	sun_aaxxjlsuzvqlgylf.tif	1275106.741436	1275107.000026	1275107.690243	7.590736e-01	58	none	NaN	NaN
121	2	40	71	kitchen	sun_abftihopvusyfakt.tif	1275108.459808	1275108.718389	1275109.408580	8.424883e-01	61	none	NaN	NaN
121	2	41	93	kitchen	sun_ahspylgoovwmwvgk.tif	1275110.178170	1275110.436760	1275111.126983	7.674151e-01	83	39	1275112.979205	1
121	2	42	100	kitchen	sun_amjjdeyrggfqgmom.tif	1275113.756711	1275114.015301	1275114.705447	8.174639e-01	90	none	NaN	NaN
121	2	43	108	kitchen	sun_aymvwlarqodbwuoc.tif	1275115.475080	1275115.733666	1275116.423809	6.756589e-01	98	none	NaN	NaN
121	2	44	76	kitchen	sun_acwjdupvyjsugpay.tif	1275117.193445	1275117.452039	1275118.142127	7.840980e-01	66	none	NaN	NaN
121	2	45	97	kitchen	sun_ajkqhtgcbgpcwrwn.tif	1275118.903474	1275119.162062	1275119.852117	7.757565e-01	87	none	NaN	NaN
121	2	46	79	kitchen	sun_admlmbcdswaszruo.tif	1275120.621840	1275120.880431	1275121.570467	8.258053e-01	69	none	NaN	NaN
121	2	47	77	kitchen	sun_acxkpeoqbwcxfvip.tif	1275122.340209	1275122.598797	1275123.288905	7.924395e-01	67	none	NaN	NaN
121	2	48	103	kitchen	sun_aunzlwrbjumxhwdj.tif	1275124.058576	1275124.317165	1275125.007266	7.840980e-01	93	none	NaN	NaN
121	2	49	110	kitchen	sun_azmutvzbxypaceni.tif	1275125.776943	1275126.035533	1275126.725601	8.007809e-01	100	none	NaN	NaN
121	2	50	101	kitchen	sun_aqeaevwwwjoqhzvl.tif	1275127.495312	1275127.753901	1275128.443952	7.173662e-01	91	none	NaN	NaN
121	2	51	88	kitchen	sun_agubuxuukhzyzpdp.tif	1275129.213677	1275129.472267	1275130.162370	8.174639e-01	78	none	NaN	NaN
121	2	52	92	kitchen	sun_ahpczsiumwwocjkv.tif	1275130.932046	1275131.190636	1275131.880688	6.923418e-01	82	37	1275133.371062	0
121	2	53	66	kitchen	sun_aapllqyqlykszopd.tif	1275134.143557	1275134.402147	1275135.092304	8.091224e-01	56	none	NaN	NaN
121	2	54	102	kitchen	sun_auaiucuqpdausiva.tif	1275135.861924	1275136.120515	1275136.810603	7.924395e-01	92	37	1275137.531172	1
121	2	55	78	kitchen	sun_adgqasybjyktddhj.tif	1275138.306013	1275138.564598	1275139.254749	7.924395e-01	68	none	NaN	NaN
121	2	56	68	kitchen	sun_aaxxjlsuzvqlgylf.tif	1275140.024374	1275140.282971	1275140.972982	6.756589e-01	58	none	NaN	NaN
121	2	57	62	kitchen	labelme_kxvouciolcpqplr.tif	1275141.734405	1275141.992991	1275142.683014	6.589760e-01	52	none	NaN	NaN
121	2	58	100	kitchen	sun_amjjdeyrggfqgmom.tif	1275143.452770	1275143.711360	1275144.401432	6.923418e-01	90	none	NaN	NaN
121	2	59	74	kitchen	sun_acfmftudsenhrfhy.tif	1275145.171139	1275145.429733	1275146.119777	7.173662e-01	64	none	NaN	NaN
121	2	60	109	kitchen	sun_aypmqwcualkenuoe.tif	1275146.889509	1275147.148094	1275147.838150	8.424883e-01	99	none	NaN	NaN
121	2	61	105	kitchen	sun_avszsnwsbuqfgzbn.tif	1275148.607869	1275148.866464	1275149.556507	7.590736e-01	95	none	NaN	NaN
121	2	62	67	kitchen	sun_aarfiyshqohlwkmo.tif	1275150.326238	1275150.584831	1275151.274988	6.840004e-01	57	none	NaN	NaN
121	2	63	83	kitchen	sun_aeqdocilnnpuvuhx.tif	1275152.044605	1275152.303194	1275152.993230	6.673174e-01	73	none	NaN	NaN
121	2	64	90	kitchen	sun_ahdycvpopffkzzsu.tif	1275153.762976	1275154.021571	1275154.711592	6.756589e-01	80	none	NaN	NaN
121	2	65	75	kitchen	sun_acgtpgfybqjmzeyw.tif	1275155.481342	1275155.739932	1275156.429953	7.757565e-01	65	none	NaN	NaN
121	2	66	101	kitchen	sun_aqeaevwwwjoqhzvl.tif	1275157.199712	1275157.458299	1275158.148315	7.757565e-01	91	none	NaN	NaN
121	2	67	82	kitchen	sun_aenotlpyftoioydp.tif	1275158.918080	1275159.176666	1275159.866753	6.840004e-01	72	37	1275160.626959	0
121	2	68	97	kitchen	sun_ajkqhtgcbgpcwrwn.tif	1275161.403869	1275161.662462	1275162.352513	7.006833e-01	87	none	NaN	NaN
121	2	69	77	kitchen	sun_acxkpeoqbwcxfvip.tif	1275163.122240	1275163.380830	1275164.071047	7.340492e-01	67	none	NaN	NaN
121	2	70	63	kitchen	labelme_rykdqxenmhulbdn.tif	1275164.840605	1275165.099197	1275165.789354	7.423907e-01	53	none	NaN	NaN
121	2	71	87	kitchen	sun_agorklincwxrdtga.tif	1275166.558973	1275166.817562	1275167.507665	8.341468e-01	77	none	NaN	NaN
121	2	72	84	kitchen	sun_aexklacwqwezaorf.tif	1275168.277341	1275168.535932	1275169.226036	7.674151e-01	74	none	NaN	NaN
121	2	73	94	kitchen	sun_ahywdevtimnqcsln.tif	1275169.995709	1275170.254296	1275170.944335	6.923418e-01	84	37	1275171.619090	1
121	2	74	65	kitchen	sun_aamedkxepzlwuxes.tif	1275172.389744	1275172.648336	1275173.338588	8.508297e-01	55	none	NaN	NaN
121	2	75	96	kitchen	sun_ajcbwwvdlsvjyzje.tif	1275174.108110	1275174.366702	1275175.056828	7.507321e-01	86	39	1275176.522833	1
121	2	76	106	kitchen	sun_awcpdzzznmweyyhv.tif	1275177.294599	1275177.553188	1275178.243341	8.007809e-01	96	none	NaN	NaN
121	2	77	80	kitchen	sun_aegoxogugdkwpmpj.tif	1275179.012970	1275179.271554	1275179.961667	8.258053e-01	70	37	1275180.763048	1
121	2	78	95	kitchen	sun_aixorpehvfykdynp.tif	1275181.540464	1275181.799061	1275182.489119	7.423907e-01	85	none	NaN	NaN
121	2	79	81	kitchen	sun_aehawpgmrlhlvcow.tif	1275183.258843	1275183.517425	1275184.207635	8.174639e-01	71	none	NaN	NaN
121	2	80	76	kitchen	sun_acwjdupvyjsugpay.tif	1275184.977204	1275185.235793	1275185.925839	6.589760e-01	66	37	1275186.730789	0
121	2	81	61	kitchen	labelme_brsyyvweiuaazfr.tif	1275187.504704	1275187.763294	1275188.453433	8.091224e-01	51	none	NaN	NaN
121	2	82	98	kitchen	sun_akchetnepxlcxhsu.tif	1275189.223066	1275189.481659	1275190.171742	8.007809e-01	88	none	NaN	NaN
121	2	83	91	kitchen	sun_ahljzhgcdpomplvg.tif	1275190.941440	1275191.200028	1275191.890057	6.506345e-01	81	none	NaN	NaN
121	2	84	72	kitchen	sun_abpwyqmlzafvklqo.tif	1275192.651462	1275192.910056	1275193.600155	6.589760e-01	62	none	NaN	NaN
121	2	85	107	kitchen	sun_axyyrmzcupyhlivc.tif	1275194.369832	1275194.628423	1275195.318471	7.423907e-01	97	37	1275196.163135	0
121	2	86	104	kitchen	sun_auticobqsbwgoppi.tif	1275196.939037	1275197.197628	1275197.887743	6.840004e-01	94	none	NaN	NaN
121	2	87	108	kitchen	sun_aymvwlarqodbwuoc.tif	1275198.657409	1275198.915995	1275199.606162	7.257077e-01	98	none	NaN	NaN
121	2	88	93	kitchen	sun_ahspylgoovwmwvgk.tif	1275200.375774	1275200.634366	1275201.324429	8.258053e-01	83	none	NaN	NaN
121	2	89	86	kitchen	sun_aggjlwcdjsjcaemh.tif	1275202.094140	1275202.352734	1275203.042837	8.174639e-01	76	none	NaN	NaN
121	2	90	103	kitchen	sun_aunzlwrbjumxhwdj.tif	1275203.812511	1275204.071126	1275204.761160	6.506345e-01	93	none	NaN	NaN
121	2	91	73	kitchen	sun_abrcnpqqhmjwekyf.tif	1275205.530876	1275205.789462	1275206.479664	7.340492e-01	63	none	NaN	NaN
121	2	92	89	kitchen	sun_agzzivivdpnawacl.tif	1275207.249243	1275207.507854	1275208.198018	7.674151e-01	79	none	NaN	NaN
121	2	93	71	kitchen	sun_abftihopvusyfakt.tif	1275208.967610	1275209.226198	1275209.916343	6.756589e-01	61	none	NaN	NaN
121	2	94	85	kitchen	sun_afuyedyxivkhecmu.tif	1275210.685982	1275210.944570	1275211.634706	8.508297e-01	75	none	NaN	NaN
121	2	95	64	kitchen	sun_aadbddgrdsjugojn.tif	1275212.404350	1275212.662938	1275213.353139	6.673174e-01	54	none	NaN	NaN
121	2	96	110	kitchen	sun_azmutvzbxypaceni.tif	1275214.122716	1275214.381303	1275215.071513	8.424883e-01	100	none	NaN	NaN
121	2	97	70	kitchen	sun_abdxkyyxwfskuaqb.tif	1275215.841081	1275216.099675	1275216.789960	8.341468e-01	60	none	NaN	NaN
121	2	98	99	kitchen	sun_akcjzhbbjlbogpdi.tif	1275217.559448	1275217.818036	1275218.508189	7.840980e-01	89	none	NaN	NaN
121	2	99	79	kitchen	sun_admlmbcdswaszruo.tif	1275219.277816	1275219.536409	1275220.226420	8.091224e-01	69	none	NaN	NaN
121	2	100	69	kitchen	sun_abdenxonkemggwsq.tif	1275220.996183	1275221.254771	1275221.944877	7.257077e-01	59	none	NaN	NaN
121	3	1	27	bathroom	sun_ahcvzmoyaycdoftf.tif	1275229.337772	1275229.596362	1275230.411545	8.258053e-01	17	none	NaN	NaN
121	3	2	21	bathroom	sun_aggnnqpdorgxpvce.tif	1275231.181264	1275231.439850	1275232.255009	6.923418e-01	11	39	1275233.675065	1
121	3	3	19	bathroom	sun_aclfzgynxzxlbepz.tif	1275234.451169	1275234.709757	1275235.524971	8.258053e-01	9	none	NaN	NaN
121	3	4	46	bathroom	sun_apmqjbnwghzuhhzh.tif	1275236.294655	1275236.553253	1275237.368570	7.090248e-01	36	none	NaN	NaN
121	3	5	17	bathroom	sun_acegryoqftbzowsg.tif	1275238.138138	1275238.396736	1275239.211946	8.424883e-01	7	none	NaN	NaN
121	3	6	34	bathroom	sun_alkosphxlxwjwgjd.tif	1275239.981643	1275240.240228	1275241.055423	7.257077e-01	24	none	NaN	NaN
121	3	7	18	bathroom	sun_acgyywnybuveqsro.tif	1275241.825133	1275242.083726	1275242.899032	7.090248e-01	8	none	NaN	NaN
121	3	8	38	bathroom	sun_anhioqovhscjqqwb.tif	1275243.668622	1275243.927212	1275244.742474	6.756589e-01	28	none	NaN	NaN
121	3	9	50	bathroom	sun_aspsyogrekjtfozg.tif	1275245.512117	1275245.770701	1275246.586058	8.424883e-01	40	none	NaN	NaN
121	3	10	29	bathroom	sun_ahqjwnzgolcaoidx.tif	1275247.355608	1275247.614195	1275248.429374	7.090248e-01	19	37	1275249.219080	1
121	3	11	53	bathroom	sun_ausgutylgojavyoq.tif	1275249.991547	1275250.250139	1275251.065414	6.589760e-01	43	none	NaN	NaN
121	3	12	59	bathroom	sun_axyrejkiiaqiurjk.tif	1275251.835037	1275252.093627	1275252.908917	7.840980e-01	49	none	NaN	NaN
121	3	13	24	bathroom	sun_agrwbmhcpmfuwmsg.tif	1275253.678530	1275253.937116	1275254.752400	8.007809e-01	14	none	NaN	NaN
121	3	14	58	bathroom	sun_axxbkopsgyouuebh.tif	1275255.522020	1275255.780611	1275256.595838	7.507321e-01	48	none	NaN	NaN
121	3	15	31	bathroom	sun_akiytfaagpdsphgz.tif	1275257.365513	1275257.624101	1275258.439300	6.840004e-01	21	none	NaN	NaN
121	3	16	13	bathroom	sun_aavhrsfjbserjtht.tif	1275259.200664	1275259.459255	1275260.274406	7.590736e-01	3	none	NaN	NaN
121	3	17	54	bathroom	sun_auzqhkafidnkrwmo.tif	1275261.044159	1275261.302739	1275262.117893	8.341468e-01	44	37	1275262.914938	1
121	3	18	37	bathroom	sun_amzlamotzwfkwjco.tif	1275263.688437	1275263.947026	1275264.762306	7.340492e-01	27	none	NaN	NaN
121	3	19	49	bathroom	sun_asfwthctfqerjvxr.tif	1275265.531927	1275265.790515	1275266.605852	7.173662e-01	39	none	NaN	NaN
121	3	20	45	bathroom	sun_apkxzenqapsujocq.tif	1275267.375418	1275267.634009	1275268.449320	6.756589e-01	35	none	NaN	NaN
121	3	21	39	bathroom	sun_anryaplzeujmzfkd.tif	1275269.218908	1275269.477499	1275270.292735	6.506345e-01	29	none	NaN	NaN
121	3	22	51	bathroom	sun_atstyziqcmkahyxk.tif	1275271.062405	1275271.320992	1275272.136186	7.674151e-01	41	none	NaN	NaN
121	3	23	30	bathroom	sun_ajlawzvmubibwbpy.tif	1275272.905893	1275273.164480	1275273.979824	6.923418e-01	20	none	NaN	NaN
121	3	24	33	bathroom	sun_aljolscmmzydegqp.tif	1275274.749383	1275275.007969	1275275.823199	7.840980e-01	23	none	NaN	NaN
121	3	25	20	bathroom	sun_afcoljnjfoxjtgja.tif	1275276.592874	1275276.851485	1275277.666746	6.756589e-01	10	none	NaN	NaN
121	3	26	60	bathroom	sun_azqyogdvyhahyram.tif	1275278.436367	1275278.694957	1275279.510152	8.091224e-01	50	none	NaN	NaN
121	3	27	22	bathroom	sun_agguqiubmwhqqunb.tif	1275280.279856	1275280.538451	1275281.353719	7.674151e-01	12	39	1275282.323032	1
121	3	28	55	bathroom	sun_avhrdrntsqrjzccq.tif	1275283.099314	1275283.357903	1275284.173156	7.173662e-01	45	none	NaN	NaN
121	3	29	52	bathroom	sun_aunuadmjocsddsrl.tif	1275284.942801	1275285.201401	1275286.016689	7.006833e-01	42	none	NaN	NaN
121	3	30	14	bathroom	sun_abapwbhyhkfixyex.tif	1275286.786295	1275287.044888	1275287.860187	7.924395e-01	4	none	NaN	NaN
121	3	31	35	bathroom	sun_alotolagknyrgtsk.tif	1275288.629787	1275288.888376	1275289.703696	7.757565e-01	25	37	1275290.587016	0
121	3	32	11	bathroom	labelme_sfxiulhjbhlyiyt.tif	1275291.357487	1275291.616080	1275292.431322	7.340492e-01	1	none	NaN	NaN
121	3	33	48	bathroom	sun_aqrpegblszgcoujh.tif	1275293.200980	1275293.459569	1275294.274939	8.258053e-01	38	none	NaN	NaN
121	3	34	28	bathroom	sun_ahijqszoswveeyji.tif	1275295.044471	1275295.303063	1275296.118288	7.507321e-01	18	37	1275296.930994	0
121	3	35	57	bathroom	sun_axldvoqbuvuggfmq.tif	1275297.705435	1275297.964029	1275298.779198	7.924395e-01	47	none	NaN	NaN
121	3	36	26	bathroom	sun_ahaulkltgpkeeemi.tif	1275299.548928	1275299.807516	1275300.622689	7.257077e-01	16	none	NaN	NaN
121	3	37	23	bathroom	sun_aghyqhbptboemmoq.tif	1275301.392422	1275301.651007	1275302.466220	8.174639e-01	13	none	NaN	NaN
121	3	38	47	bathroom	sun_apynckhmoftszqoq.tif	1275303.235907	1275303.494504	1275304.309915	7.423907e-01	37	none	NaN	NaN
121	3	39	42	bathroom	sun_apeeialkgkuxddgh.tif	1275305.079402	1275305.337992	1275306.153147	7.674151e-01	32	37	1275306.986880	0
121	3	40	25	bathroom	sun_agyqfjcfkdcydepw.tif	1275307.757051	1275308.015643	1275308.830800	6.840004e-01	15	none	NaN	NaN
121	3	41	32	bathroom	sun_aleqenyvunhactkl.tif	1275309.600542	1275309.859136	1275310.674428	7.507321e-01	22	37	1275311.842879	0
121	3	42	12	bathroom	sun_aapitsgbtktqubfy.tif	1275312.620196	1275312.878787	1275313.694070	8.007809e-01	2	none	NaN	NaN
121	3	43	36	bathroom	sun_ambriybtogmepttm.tif	1275314.463652	1275314.722279	1275315.537446	7.006833e-01	26	none	NaN	NaN
121	3	44	44	bathroom	sun_apkruvsevgegsdwp.tif	1275316.307182	1275316.565772	1275317.380937	8.508297e-01	34	none	NaN	NaN
121	3	45	56	bathroom	sun_awnqiikzaispgmwo.tif	1275318.150671	1275318.409262	1275319.224458	6.756589e-01	46	none	NaN	NaN
121	3	46	15	bathroom	sun_abjtwfukuwddzted.tif	1275319.994162	1275320.252749	1275321.067951	8.424883e-01	5	none	NaN	NaN
121	3	47	16	bathroom	sun_acduarbnmmoglmiv.tif	1275321.837653	1275322.096246	1275322.911468	6.923418e-01	6	none	NaN	NaN
121	3	48	43	bathroom	sun_apjevzvycyhuqghb.tif	1275323.681147	1275323.939735	1275324.754918	7.757565e-01	33	none	NaN	NaN
121	3	49	40	bathroom	sun_aofnryafpsjimzsb.tif	1275325.524637	1275325.783223	1275326.598387	6.673174e-01	30	none	NaN	NaN
121	3	50	41	bathroom	sun_aoybiabnpadelefl.tif	1275327.368129	1275327.626721	1275328.442057	6.673174e-01	31	none	NaN	NaN
121	3	51	27	bathroom	sun_ahcvzmoyaycdoftf.tif	1275329.211625	1275329.470209	1275330.285369	8.341468e-01	17	37	1275331.010952	1
121	3	52	36	bathroom	sun_ambriybtogmepttm.tif	1275331.789173	1275332.047758	1275332.862972	8.341468e-01	26	none	NaN	NaN
121	3	53	37	bathroom	sun_amzlamotzwfkwjco.tif	1275333.632659	1275333.891249	1275334.706495	8.091224e-01	27	none	NaN	NaN
121	3	54	14	bathroom	sun_abapwbhyhkfixyex.tif	1275335.476152	1275335.734747	1275336.549921	8.007809e-01	4	none	NaN	NaN
121	3	55	40	bathroom	sun_aofnryafpsjimzsb.tif	1275337.319643	1275337.578233	1275338.393387	7.173662e-01	30	none	NaN	NaN
121	3	56	41	bathroom	sun_aoybiabnpadelefl.tif	1275339.163140	1275339.421727	1275340.236905	6.589760e-01	31	none	NaN	NaN
121	3	57	39	bathroom	sun_anryaplzeujmzfkd.tif	1275341.006628	1275341.265218	1275342.080375	6.840004e-01	29	none	NaN	NaN
121	3	58	43	bathroom	sun_apjevzvycyhuqghb.tif	1275342.850116	1275343.108709	1275343.923965	6.923418e-01	33	none	NaN	NaN
121	3	59	60	bathroom	sun_azqyogdvyhahyram.tif	1275344.693606	1275344.952196	1275345.767389	7.006833e-01	50	37	1275346.579012	0
121	3	60	38	bathroom	sun_anhioqovhscjqqwb.tif	1275347.354573	1275347.613165	1275348.428334	7.257077e-01	28	none	NaN	NaN
121	3	61	12	bathroom	sun_aapitsgbtktqubfy.tif	1275349.198063	1275349.456656	1275350.271800	7.423907e-01	2	none	NaN	NaN
121	3	62	11	bathroom	labelme_sfxiulhjbhlyiyt.tif	1275351.041558	1275351.300149	1275352.115367	7.757565e-01	1	none	NaN	NaN
121	3	63	30	bathroom	sun_ajlawzvmubibwbpy.tif	1275352.885047	1275353.143641	1275353.958937	8.174639e-01	20	none	NaN	NaN
121	3	64	28	bathroom	sun_ahijqszoswveeyji.tif	1275354.728540	1275354.987129	1275355.802438	6.506345e-01	18	none	NaN	NaN
121	3	65	48	bathroom	sun_aqrpegblszgcoujh.tif	1275356.572012	1275356.830621	1275357.645822	7.507321e-01	38	none	NaN	NaN
121	3	66	25	bathroom	sun_agyqfjcfkdcydepw.tif	1275358.415524	1275358.674109	1275359.489274	7.423907e-01	15	none	NaN	NaN
121	3	67	23	bathroom	sun_aghyqhbptboemmoq.tif	1275360.259010	1275360.517600	1275361.332873	6.923418e-01	13	none	NaN	NaN
121	3	68	16	bathroom	sun_acduarbnmmoglmiv.tif	1275362.102501	1275362.361095	1275363.176368	7.340492e-01	6	none	NaN	NaN
121	3	69	58	bathroom	sun_axxbkopsgyouuebh.tif	1275363.945997	1275364.204583	1275365.019840	8.258053e-01	48	none	NaN	NaN
121	3	70	21	bathroom	sun_aggnnqpdorgxpvce.tif	1275365.789488	1275366.048077	1275366.863378	8.174639e-01	11	none	NaN	NaN
121	3	71	26	bathroom	sun_ahaulkltgpkeeemi.tif	1275367.632979	1275367.891565	1275368.706916	8.091224e-01	16	none	NaN	NaN
121	3	72	34	bathroom	sun_alkosphxlxwjwgjd.tif	1275369.476470	1275369.735057	1275370.550247	6.506345e-01	24	none	NaN	NaN
121	3	73	52	bathroom	sun_aunuadmjocsddsrl.tif	1275371.319958	1275371.578546	1275372.393740	6.673174e-01	42	none	NaN	NaN
121	3	74	15	bathroom	sun_abjtwfukuwddzted.tif	1275373.163452	1275373.422045	1275374.237239	7.590736e-01	5	none	NaN	NaN
121	3	75	13	bathroom	sun_aavhrsfjbserjtht.tif	1275375.006944	1275375.265528	1275376.080760	7.674151e-01	3	none	NaN	NaN
121	3	76	46	bathroom	sun_apmqjbnwghzuhhzh.tif	1275376.850434	1275377.109021	1275377.924373	8.424883e-01	36	none	NaN	NaN
121	3	77	59	bathroom	sun_axyrejkiiaqiurjk.tif	1275378.693922	1275378.952514	1275379.767719	7.924395e-01	49	none	NaN	NaN
121	3	78	42	bathroom	sun_apeeialkgkuxddgh.tif	1275380.537417	1275380.796007	1275381.611331	7.840980e-01	32	none	NaN	NaN
121	3	79	24	bathroom	sun_agrwbmhcpmfuwmsg.tif	1275382.380904	1275382.639493	1275383.454784	8.007809e-01	14	none	NaN	NaN
121	3	80	35	bathroom	sun_alotolagknyrgtsk.tif	1275384.224397	1275384.482991	1275385.298312	7.173662e-01	25	37	1275386.090935	1
121	3	81	57	bathroom	sun_axldvoqbuvuggfmq.tif	1275386.868681	1275387.127273	1275387.942429	8.258053e-01	47	none	NaN	NaN
121	3	82	32	bathroom	sun_aleqenyvunhactkl.tif	1275388.712174	1275388.970767	1275389.786101	7.423907e-01	22	none	NaN	NaN
121	3	83	55	bathroom	sun_avhrdrntsqrjzccq.tif	1275390.555665	1275390.814254	1275391.629445	7.924395e-01	45	37	1275392.314907	1
121	3	84	22	bathroom	sun_agguqiubmwhqqunb.tif	1275393.091506	1275393.350097	1275394.165262	6.589760e-01	12	none	NaN	NaN
121	3	85	45	bathroom	sun_apkxzenqapsujocq.tif	1275394.934997	1275395.193585	1275396.008837	7.340492e-01	35	none	NaN	NaN
121	3	86	20	bathroom	sun_afcoljnjfoxjtgja.tif	1275396.778489	1275397.037091	1275397.852342	7.840980e-01	10	37	1275398.610819	1
121	3	87	19	bathroom	sun_aclfzgynxzxlbepz.tif	1275399.381067	1275399.639652	1275400.454897	7.590736e-01	9	none	NaN	NaN
121	3	88	31	bathroom	sun_akiytfaagpdsphgz.tif	1275401.224558	1275401.483146	1275402.298484	7.590736e-01	21	none	NaN	NaN
121	3	89	47	bathroom	sun_apynckhmoftszqoq.tif	1275403.068048	1275403.326640	1275404.141995	8.508297e-01	37	none	NaN	NaN
121	3	90	17	bathroom	sun_acegryoqftbzowsg.tif	1275404.911532	1275405.170128	1275405.985333	6.840004e-01	7	none	NaN	NaN
121	3	91	33	bathroom	sun_aljolscmmzydegqp.tif	1275406.755029	1275407.013618	1275407.828957	7.257077e-01	23	none	NaN	NaN
121	3	92	51	bathroom	sun_atstyziqcmkahyxk.tif	1275408.598524	1275408.857111	1275409.672436	6.673174e-01	41	37	1275410.146840	1
121	3	93	54	bathroom	sun_auzqhkafidnkrwmo.tif	1275410.917482	1275411.176068	1275411.991375	8.174639e-01	44	none	NaN	NaN
121	3	94	18	bathroom	sun_acgyywnybuveqsro.tif	1275412.760973	1275413.019563	1275413.834775	7.006833e-01	8	none	NaN	NaN
121	3	95	50	bathroom	sun_aspsyogrekjtfozg.tif	1275414.604465	1275414.863053	1275415.678198	7.090248e-01	40	none	NaN	NaN
121	3	96	53	bathroom	sun_ausgutylgojavyoq.tif	1275416.447953	1275416.706548	1275417.521873	7.757565e-01	43	none	NaN	NaN
121	3	97	56	bathroom	sun_awnqiikzaispgmwo.tif	1275418.291450	1275418.550037	1275419.365369	8.091224e-01	46	37	1275419.906644	1
121	3	98	49	bathroom	sun_asfwthctfqerjvxr.tif	1275420.677136	1275420.935733	1275421.751000	7.590736e-01	39	none	NaN	NaN
121	3	99	44	bathroom	sun_apkruvsevgegsdwp.tif	1275422.520633	1275422.779218	1275423.594567	6.589760e-01	34	none	NaN	NaN
121	3	100	29	bathroom	sun_ahqjwnzgolcaoidx.tif	1275424.364127	1275424.622711	1275425.437978	8.341468e-01	19	none	NaN	NaN
121	4	1	68	kitchen	sun_aaxxjlsuzvqlgylf.tif	1275435.533531	1275435.792105	1275436.490632	7.257077e-01	58	none	NaN	NaN
121	4	2	77	kitchen	sun_acxkpeoqbwcxfvip.tif	1275437.260219	1275437.518812	1275438.217377	7.006833e-01	67	none	NaN	NaN
121	4	3	79	kitchen	sun_admlmbcdswaszruo.tif	1275438.986930	1275439.245519	1275439.944006	8.174639e-01	69	none	NaN	NaN
121	4	4	86	kitchen	sun_aggjlwcdjsjcaemh.tif	1275440.713638	1275440.972228	1275441.670598	7.090248e-01	76	none	NaN	NaN
121	4	5	94	kitchen	sun_ahywdevtimnqcsln.tif	1275442.440351	1275442.698936	1275443.397300	7.006833e-01	84	none	NaN	NaN
121	4	6	95	kitchen	sun_aixorpehvfykdynp.tif	1275444.167055	1275444.425646	1275445.124127	6.756589e-01	85	none	NaN	NaN
121	4	7	75	kitchen	sun_acgtpgfybqjmzeyw.tif	1275445.893766	1275446.152356	1275446.850740	7.507321e-01	65	none	NaN	NaN
121	4	8	88	kitchen	sun_agubuxuukhzyzpdp.tif	1275447.620473	1275447.879066	1275448.577496	6.589760e-01	78	none	NaN	NaN
121	4	9	85	kitchen	sun_afuyedyxivkhecmu.tif	1275449.347185	1275449.605771	1275450.304214	7.840980e-01	75	37	1275451.122909	1
121	4	10	104	kitchen	sun_auticobqsbwgoppi.tif	1275451.899710	1275452.158301	1275452.856765	7.590736e-01	94	39	1275455.130902	1
121	4	11	72	kitchen	sun_abpwyqmlzafvklqo.tif	1275455.903673	1275456.162265	1275456.860763	7.924395e-01	62	none	NaN	NaN
121	4	12	66	kitchen	sun_aapllqyqlykszopd.tif	1275457.630379	1275457.888974	1275458.587369	7.257077e-01	56	none	NaN	NaN
121	4	13	69	kitchen	sun_abdenxonkemggwsq.tif	1275459.357090	1275459.615678	1275460.314038	8.091224e-01	59	39	1275461.994762	1
121	4	14	108	kitchen	sun_aymvwlarqodbwuoc.tif	1275462.768802	1275463.027393	1275463.725923	6.756589e-01	98	none	NaN	NaN
121	4	15	105	kitchen	sun_avszsnwsbuqfgzbn.tif	1275464.495507	1275464.754092	1275465.452507	7.507321e-01	95	none	NaN	NaN
121	4	16	78	kitchen	sun_adgqasybjyktddhj.tif	1275466.213875	1275466.472468	1275467.171011	8.007809e-01	68	none	NaN	NaN
121	4	17	101	kitchen	sun_aqeaevwwwjoqhzvl.tif	1275467.940588	1275468.199172	1275468.897668	8.508297e-01	91	39	1275470.322738	1
121	4	18	99	kitchen	sun_akcjzhbbjlbogpdi.tif	1275471.093706	1275471.352293	1275472.050787	6.840004e-01	89	none	NaN	NaN
121	4	19	90	kitchen	sun_ahdycvpopffkzzsu.tif	1275472.820417	1275473.079005	1275473.777530	7.423907e-01	80	none	NaN	NaN
121	4	20	70	kitchen	sun_abdxkyyxwfskuaqb.tif	1275474.547124	1275474.805711	1275475.504204	8.341468e-01	60	none	NaN	NaN
121	4	21	81	kitchen	sun_aehawpgmrlhlvcow.tif	1275476.273829	1275476.532421	1275477.230801	8.007809e-01	71	37	1275478.114599	0
121	4	22	106	kitchen	sun_awcpdzzznmweyyhv.tif	1275478.893091	1275479.151682	1275479.850229	8.091224e-01	96	none	NaN	NaN
121	4	23	93	kitchen	sun_ahspylgoovwmwvgk.tif	1275480.619796	1275480.878387	1275481.576922	6.506345e-01	83	none	NaN	NaN
121	4	24	97	kitchen	sun_ajkqhtgcbgpcwrwn.tif	1275482.346509	1275482.605100	1275483.303490	7.173662e-01	87	none	NaN	NaN
121	4	25	91	kitchen	sun_ahljzhgcdpomplvg.tif	1275484.073216	1275484.331809	1275485.030190	7.257077e-01	81	none	NaN	NaN
121	4	26	96	kitchen	sun_ajcbwwvdlsvjyzje.tif	1275485.799926	1275486.058513	1275486.757072	8.091224e-01	86	none	NaN	NaN
121	4	27	62	kitchen	labelme_kxvouciolcpqplr.tif	1275487.526639	1275487.785224	1275488.483684	7.757565e-01	52	none	NaN	NaN
121	4	28	109	kitchen	sun_aypmqwcualkenuoe.tif	1275489.253343	1275489.511932	1275490.210334	7.757565e-01	99	37	1275490.978889	1
121	4	29	76	kitchen	sun_acwjdupvyjsugpay.tif	1275491.755822	1275492.014406	1275492.712783	8.091224e-01	66	none	NaN	NaN
121	4	30	87	kitchen	sun_agorklincwxrdtga.tif	1275493.482532	1275493.741119	1275494.439480	8.424883e-01	77	none	NaN	NaN
121	4	31	102	kitchen	sun_auaiucuqpdausiva.tif	1275495.209240	1275495.467826	1275496.166201	8.341468e-01	92	none	NaN	NaN
121	4	32	110	kitchen	sun_azmutvzbxypaceni.tif	1275496.935944	1275497.194541	1275497.893010	7.674151e-01	100	37	1275498.787287	0
121	4	33	98	kitchen	sun_akchetnepxlcxhsu.tif	1275499.563543	1275499.822132	1275500.520610	6.673174e-01	88	none	NaN	NaN
121	4	34	100	kitchen	sun_amjjdeyrggfqgmom.tif	1275501.290256	1275501.548843	1275502.247405	7.340492e-01	90	37	1275503.594559	1
121	4	35	107	kitchen	sun_axyyrmzcupyhlivc.tif	1275504.368302	1275504.626898	1275505.325376	7.674151e-01	97	none	NaN	NaN
121	4	36	65	kitchen	sun_aamedkxepzlwuxes.tif	1275506.095013	1275506.353601	1275507.052099	8.174639e-01	55	none	NaN	NaN
121	4	37	64	kitchen	sun_aadbddgrdsjugojn.tif	1275507.821719	1275508.080311	1275508.778753	7.340492e-01	54	37	1275509.826879	1
121	4	38	89	kitchen	sun_agzzivivdpnawacl.tif	1275510.599468	1275510.858060	1275511.556503	8.424883e-01	79	none	NaN	NaN
121	4	39	103	kitchen	sun_aunzlwrbjumxhwdj.tif	1275512.326177	1275512.584766	1275513.283181	6.840004e-01	93	none	NaN	NaN
121	4	40	71	kitchen	sun_abftihopvusyfakt.tif	1275514.052885	1275514.311481	1275515.010029	7.423907e-01	61	none	NaN	NaN
121	4	41	83	kitchen	sun_aeqdocilnnpuvuhx.tif	1275515.779595	1275516.038184	1275516.736582	6.506345e-01	73	none	NaN	NaN
121	4	42	73	kitchen	sun_abrcnpqqhmjwekyf.tif	1275517.506309	1275517.764897	1275518.463309	6.506345e-01	63	none	NaN	NaN
121	4	43	84	kitchen	sun_aexklacwqwezaorf.tif	1275519.233013	1275519.491605	1275520.190074	7.173662e-01	74	none	NaN	NaN
121	4	44	92	kitchen	sun_ahpczsiumwwocjkv.tif	1275520.959725	1275521.218309	1275521.916839	7.674151e-01	82	none	NaN	NaN
121	4	45	82	kitchen	sun_aenotlpyftoioydp.tif	1275522.686431	1275522.945021	1275523.643402	8.258053e-01	72	39	1275524.922752	1
121	4	46	80	kitchen	sun_aegoxogugdkwpmpj.tif	1275525.697746	1275525.956337	1275526.654766	6.923418e-01	70	none	NaN	NaN
121	4	47	61	kitchen	labelme_brsyyvweiuaazfr.tif	1275527.424455	1275527.683048	1275528.381512	7.090248e-01	51	none	NaN	NaN
121	4	48	63	kitchen	labelme_rykdqxenmhulbdn.tif	1275529.151162	1275529.409754	1275530.108172	8.174639e-01	53	37	1275530.786804	1
121	4	49	67	kitchen	sun_aarfiyshqohlwkmo.tif	1275531.561883	1275531.820472	1275532.518926	7.006833e-01	57	none	NaN	NaN
121	4	50	74	kitchen	sun_acfmftudsenhrfhy.tif	1275533.288589	1275533.547183	1275534.245618	7.423907e-01	64	none	NaN	NaN
121	4	51	91	kitchen	sun_ahljzhgcdpomplvg.tif	1275535.015304	1275535.273894	1275535.972377	7.924395e-01	81	none	NaN	NaN
121	4	52	85	kitchen	sun_afuyedyxivkhecmu.tif	1275536.742009	1275537.000596	1275537.699021	8.258053e-01	75	none	NaN	NaN
121	4	53	78	kitchen	sun_adgqasybjyktddhj.tif	1275538.468718	1275538.727307	1275539.425767	6.756589e-01	68	none	NaN	NaN
121	4	54	92	kitchen	sun_ahpczsiumwwocjkv.tif	1275540.195431	1275540.454014	1275541.152559	6.589760e-01	82	none	NaN	NaN
121	4	55	87	kitchen	sun_agorklincwxrdtga.tif	1275541.922136	1275542.180726	1275542.879286	8.258053e-01	77	none	NaN	NaN
121	4	56	102	kitchen	sun_auaiucuqpdausiva.tif	1275543.648844	1275543.907440	1275544.605839	7.257077e-01	92	none	NaN	NaN
121	4	57	66	kitchen	sun_aapllqyqlykszopd.tif	1275545.375552	1275545.634142	1275546.332652	8.007809e-01	56	37	1275547.082839	0
121	4	58	106	kitchen	sun_awcpdzzznmweyyhv.tif	1275547.861342	1275548.119933	1275548.818503	7.090248e-01	96	none	NaN	NaN
121	4	59	64	kitchen	sun_aadbddgrdsjugojn.tif	1275549.588054	1275549.846648	1275550.545012	7.090248e-01	54	none	NaN	NaN
121	4	60	80	kitchen	sun_aegoxogugdkwpmpj.tif	1275551.314766	1275551.573356	1275552.271871	6.673174e-01	70	none	NaN	NaN
121	4	61	73	kitchen	sun_abrcnpqqhmjwekyf.tif	1275553.041473	1275553.300065	1275553.998625	7.674151e-01	63	none	NaN	NaN
121	4	62	105	kitchen	sun_avszsnwsbuqfgzbn.tif	1275554.768182	1275555.026775	1275555.725349	7.423907e-01	95	none	NaN	NaN
121	4	63	62	kitchen	labelme_kxvouciolcpqplr.tif	1275556.494886	1275556.753479	1275557.451975	7.173662e-01	52	none	NaN	NaN
121	4	64	89	kitchen	sun_agzzivivdpnawacl.tif	1275558.221601	1275558.480193	1275559.178672	6.673174e-01	79	none	NaN	NaN
121	4	65	103	kitchen	sun_aunzlwrbjumxhwdj.tif	1275559.948306	1275560.206899	1275560.905264	8.258053e-01	93	37	1275561.642534	1
121	4	66	108	kitchen	sun_aymvwlarqodbwuoc.tif	1275562.417419	1275562.676010	1275563.374552	8.424883e-01	98	none	NaN	NaN
121	4	67	72	kitchen	sun_abpwyqmlzafvklqo.tif	1275564.144127	1275564.402718	1275565.101154	7.590736e-01	62	none	NaN	NaN
121	4	68	70	kitchen	sun_abdxkyyxwfskuaqb.tif	1275565.870839	1275566.129424	1275566.827961	6.923418e-01	60	none	NaN	NaN
121	4	69	68	kitchen	sun_aaxxjlsuzvqlgylf.tif	1275567.597548	1275567.856136	1275568.554615	6.756589e-01	58	37	1275569.402840	1
121	4	70	110	kitchen	sun_azmutvzbxypaceni.tif	1275570.175102	1275570.433688	1275571.132238	7.507321e-01	100	none	NaN	NaN
121	4	71	107	kitchen	sun_axyyrmzcupyhlivc.tif	1275571.901809	1275572.160393	1275572.858799	6.923418e-01	97	none	NaN	NaN
121	4	72	97	kitchen	sun_ajkqhtgcbgpcwrwn.tif	1275573.628516	1275573.887105	1275574.585680	7.340492e-01	87	none	NaN	NaN
121	4	73	65	kitchen	sun_aamedkxepzlwuxes.tif	1275575.355222	1275575.613811	1275576.312246	7.590736e-01	55	37	1275577.954655	0
121	4	74	99	kitchen	sun_akcjzhbbjlbogpdi.tif	1275578.725229	1275578.983814	1275579.682388	6.840004e-01	89	none	NaN	NaN
121	4	75	94	kitchen	sun_ahywdevtimnqcsln.tif	1275580.451937	1275580.710522	1275581.409009	7.840980e-01	84	none	NaN	NaN
121	4	76	83	kitchen	sun_aeqdocilnnpuvuhx.tif	1275582.178643	1275582.437238	1275583.135643	8.341468e-01	73	none	NaN	NaN
121	4	77	86	kitchen	sun_aggjlwcdjsjcaemh.tif	1275583.905354	1275584.163941	1275584.862485	6.673174e-01	76	none	NaN	NaN
121	4	78	95	kitchen	sun_aixorpehvfykdynp.tif	1275585.632056	1275585.890648	1275586.589055	7.590736e-01	85	none	NaN	NaN
121	4	79	74	kitchen	sun_acfmftudsenhrfhy.tif	1275587.358773	1275587.617358	1275588.315855	7.590736e-01	64	none	NaN	NaN
121	4	80	77	kitchen	sun_acxkpeoqbwcxfvip.tif	1275589.085477	1275589.344073	1275590.042575	7.757565e-01	67	none	NaN	NaN
121	4	81	79	kitchen	sun_admlmbcdswaszruo.tif	1275590.812183	1275591.070776	1275591.769194	7.924395e-01	69	none	NaN	NaN
121	4	82	84	kitchen	sun_aexklacwqwezaorf.tif	1275592.538897	1275592.797484	1275593.495928	8.508297e-01	74	none	NaN	NaN
121	4	83	88	kitchen	sun_agubuxuukhzyzpdp.tif	1275594.265608	1275594.524198	1275595.222615	7.924395e-01	78	none	NaN	NaN
121	4	84	109	kitchen	sun_aypmqwcualkenuoe.tif	1275595.992313	1275596.250903	1275596.949301	8.424883e-01	99	none	NaN	NaN
121	4	85	63	kitchen	labelme_rykdqxenmhulbdn.tif	1275597.719022	1275597.977607	1275598.676038	6.589760e-01	53	none	NaN	NaN
121	4	86	101	kitchen	sun_aqeaevwwwjoqhzvl.tif	1275599.445732	1275599.704324	1275600.402815	8.341468e-01	91	none	NaN	NaN
121	4	87	93	kitchen	sun_ahspylgoovwmwvgk.tif	1275601.172443	1275601.431027	1275602.130272	7.840980e-01	83	none	NaN	NaN
121	4	88	81	kitchen	sun_aehawpgmrlhlvcow.tif	1275602.899151	1275603.157739	1275603.856172	7.340492e-01	71	none	NaN	NaN
121	4	89	90	kitchen	sun_ahdycvpopffkzzsu.tif	1275604.625861	1275604.884449	1275605.583026	8.258053e-01	80	none	NaN	NaN
121	4	90	98	kitchen	sun_akchetnepxlcxhsu.tif	1275606.352569	1275606.611160	1275607.309642	7.757565e-01	88	none	NaN	NaN
121	4	91	69	kitchen	sun_abdenxonkemggwsq.tif	1275608.079278	1275608.337866	1275609.036294	6.923418e-01	59	none	NaN	NaN
121	4	92	96	kitchen	sun_ajcbwwvdlsvjyzje.tif	1275609.805983	1275610.064573	1275610.763132	6.840004e-01	86	none	NaN	NaN
121	4	93	75	kitchen	sun_acgtpgfybqjmzeyw.tif	1275611.532697	1275611.791286	1275612.489826	8.174639e-01	65	none	NaN	NaN
121	4	94	76	kitchen	sun_acwjdupvyjsugpay.tif	1275613.259401	1275613.517995	1275614.216472	7.173662e-01	66	none	NaN	NaN
121	4	95	104	kitchen	sun_auticobqsbwgoppi.tif	1275614.986110	1275615.244708	1275615.943186	8.007809e-01	94	none	NaN	NaN
121	4	96	82	kitchen	sun_aenotlpyftoioydp.tif	1275616.712824	1275616.971410	1275617.669891	7.840980e-01	72	none	NaN	NaN
121	4	97	61	kitchen	labelme_brsyyvweiuaazfr.tif	1275618.439533	1275618.698122	1275619.396514	7.006833e-01	51	none	NaN	NaN
121	4	98	71	kitchen	sun_abftihopvusyfakt.tif	1275620.166245	1275620.424838	1275621.123211	6.589760e-01	61	none	NaN	NaN
121	4	99	67	kitchen	sun_aarfiyshqohlwkmo.tif	1275621.892948	1275622.151539	1275622.850096	6.923418e-01	57	none	NaN	NaN
121	4	100	100	kitchen	sun_amjjdeyrggfqgmom.tif	1275623.619660	1275623.878249	1275624.576733	7.507321e-01	90	none	NaN	NaN
121	5	1	47	bathroom	sun_apynckhmoftszqoq.tif	1275635.147731	1275635.406324	1275636.113038	7.590736e-01	37	none	NaN	NaN
121	5	2	55	bathroom	sun_avhrdrntsqrjzccq.tif	1275636.882782	1275637.141371	1275637.848131	6.506345e-01	45	39	1275639.626470	1
121	5	3	45	bathroom	sun_apkxzenqapsujocq.tif	1275640.402931	1275640.661527	1275641.368290	7.423907e-01	35	none	NaN	NaN
121	5	4	41	bathroom	sun_aoybiabnpadelefl.tif	1275642.137984	1275642.396576	1275643.103454	7.090248e-01	31	none	NaN	NaN
121	5	5	21	bathroom	sun_aggnnqpdorgxpvce.tif	1275643.873037	1275644.131625	1275644.838481	7.173662e-01	11	none	NaN	NaN
121	5	6	36	bathroom	sun_ambriybtogmepttm.tif	1275645.608086	1275645.866679	1275646.573557	8.508297e-01	26	none	NaN	NaN
121	5	7	24	bathroom	sun_agrwbmhcpmfuwmsg.tif	1275647.343133	1275647.601724	1275648.308459	6.756589e-01	14	none	NaN	NaN
121	5	8	37	bathroom	sun_amzlamotzwfkwjco.tif	1275649.078184	1275649.336775	1275650.043586	7.006833e-01	27	none	NaN	NaN
121	5	9	20	bathroom	sun_afcoljnjfoxjtgja.tif	1275650.813232	1275651.071824	1275651.778556	7.257077e-01	10	none	NaN	NaN
121	5	10	40	bathroom	sun_aofnryafpsjimzsb.tif	1275652.548286	1275652.806878	1275653.513742	7.507321e-01	30	none	NaN	NaN
121	5	11	42	bathroom	sun_apeeialkgkuxddgh.tif	1275654.283340	1275654.541924	1275655.248648	8.091224e-01	32	none	NaN	NaN
121	5	12	13	bathroom	sun_aavhrsfjbserjtht.tif	1275656.018385	1275656.276977	1275656.983842	8.174639e-01	3	none	NaN	NaN
121	5	13	11	bathroom	labelme_sfxiulhjbhlyiyt.tif	1275657.753442	1275658.012030	1275658.718847	7.257077e-01	1	none	NaN	NaN
121	5	14	34	bathroom	sun_alkosphxlxwjwgjd.tif	1275659.488488	1275659.747074	1275660.453962	6.589760e-01	24	37	1275663.298607	1
121	5	15	51	bathroom	sun_atstyziqcmkahyxk.tif	1275664.076363	1275664.334956	1275665.041803	7.257077e-01	41	39	1275666.658826	1
121	5	16	32	bathroom	sun_aleqenyvunhactkl.tif	1275667.429680	1275667.688271	1275668.395059	7.840980e-01	22	none	NaN	NaN
121	5	17	26	bathroom	sun_ahaulkltgpkeeemi.tif	1275669.164727	1275669.423314	1275670.130044	7.924395e-01	16	none	NaN	NaN
121	5	18	33	bathroom	sun_aljolscmmzydegqp.tif	1275670.899782	1275671.158372	1275671.865109	7.006833e-01	23	37	1275673.242637	1
121	5	19	28	bathroom	sun_ahijqszoswveeyji.tif	1275674.019535	1275674.278124	1275674.984999	7.006833e-01	18	none	NaN	NaN
121	5	20	19	bathroom	sun_aclfzgynxzxlbepz.tif	1275675.754584	1275676.013173	1275676.719985	7.590736e-01	9	none	NaN	NaN
121	5	21	35	bathroom	sun_alotolagknyrgtsk.tif	1275677.489634	1275677.748230	1275678.454963	7.173662e-01	25	none	NaN	NaN
121	5	22	58	bathroom	sun_axxbkopsgyouuebh.tif	1275679.224689	1275679.483276	1275680.190028	8.508297e-01	48	none	NaN	NaN
121	5	23	27	bathroom	sun_ahcvzmoyaycdoftf.tif	1275680.959737	1275681.218328	1275681.925229	7.173662e-01	17	none	NaN	NaN
121	5	24	23	bathroom	sun_aghyqhbptboemmoq.tif	1275682.694788	1275682.953379	1275683.660226	8.091224e-01	13	none	NaN	NaN
121	5	25	56	bathroom	sun_awnqiikzaispgmwo.tif	1275684.429841	1275684.688431	1275685.395179	8.174639e-01	46	none	NaN	NaN
121	5	26	15	bathroom	sun_abjtwfukuwddzted.tif	1275686.164891	1275686.423480	1275687.130238	7.423907e-01	5	none	NaN	NaN
121	5	27	48	bathroom	sun_aqrpegblszgcoujh.tif	1275687.899939	1275688.158528	1275688.865387	8.424883e-01	38	none	NaN	NaN
121	5	28	18	bathroom	sun_acgyywnybuveqsro.tif	1275689.634989	1275689.893579	1275690.600323	8.174639e-01	8	none	NaN	NaN
121	5	29	60	bathroom	sun_azqyogdvyhahyram.tif	1275691.370040	1275691.628634	1275692.335475	8.007809e-01	50	none	NaN	NaN
121	5	30	46	bathroom	sun_apmqjbnwghzuhhzh.tif	1275693.105085	1275693.363684	1275694.070463	6.756589e-01	36	none	NaN	NaN
121	5	31	30	bathroom	sun_ajlawzvmubibwbpy.tif	1275694.840144	1275695.098728	1275695.805650	6.589760e-01	20	none	NaN	NaN
121	5	32	31	bathroom	sun_akiytfaagpdsphgz.tif	1275696.575190	1275696.833782	1275697.540617	8.424883e-01	21	none	NaN	NaN
121	5	33	16	bathroom	sun_acduarbnmmoglmiv.tif	1275698.310244	1275698.568833	1275699.275578	6.673174e-01	6	none	NaN	NaN
121	5	34	29	bathroom	sun_ahqjwnzgolcaoidx.tif	1275700.045291	1275700.303877	1275701.010660	7.090248e-01	19	37	1275703.218603	0
121	5	35	49	bathroom	sun_asfwthctfqerjvxr.tif	1275703.990864	1275704.249457	1275704.956338	7.674151e-01	39	none	NaN	NaN
121	5	36	43	bathroom	sun_apjevzvycyhuqghb.tif	1275705.725917	1275705.984510	1275706.691321	8.007809e-01	33	none	NaN	NaN
121	5	37	22	bathroom	sun_agguqiubmwhqqunb.tif	1275707.460965	1275707.719551	1275708.426399	7.006833e-01	12	none	NaN	NaN
121	5	38	17	bathroom	sun_acegryoqftbzowsg.tif	1275709.196019	1275709.454609	1275710.161416	6.673174e-01	7	none	NaN	NaN
121	5	39	44	bathroom	sun_apkruvsevgegsdwp.tif	1275710.931069	1275711.189646	1275711.896489	7.757565e-01	34	37	1275713.050642	0
121	5	40	52	bathroom	sun_aunuadmjocsddsrl.tif	1275713.825597	1275714.084190	1275714.791062	8.007809e-01	42	none	NaN	NaN
121	5	41	59	bathroom	sun_axyrejkiiaqiurjk.tif	1275715.560647	1275715.819240	1275716.526115	8.007809e-01	49	none	NaN	NaN
121	5	42	53	bathroom	sun_ausgutylgojavyoq.tif	1275717.295702	1275717.554296	1275718.261156	7.090248e-01	43	none	NaN	NaN
121	5	43	12	bathroom	sun_aapitsgbtktqubfy.tif	1275719.030745	1275719.289339	1275719.996174	6.589760e-01	2	none	NaN	NaN
121	5	44	25	bathroom	sun_agyqfjcfkdcydepw.tif	1275720.765797	1275721.024391	1275721.731288	7.674151e-01	15	none	NaN	NaN
121	5	45	14	bathroom	sun_abapwbhyhkfixyex.tif	1275722.500852	1275722.759440	1275723.466275	7.590736e-01	4	none	NaN	NaN
121	5	46	54	bathroom	sun_auzqhkafidnkrwmo.tif	1275724.235904	1275724.494489	1275725.201363	8.091224e-01	44	none	NaN	NaN
121	5	47	39	bathroom	sun_anryaplzeujmzfkd.tif	1275725.970954	1275726.229542	1275726.936430	7.840980e-01	29	none	NaN	NaN
121	5	48	38	bathroom	sun_anhioqovhscjqqwb.tif	1275727.706004	1275727.964593	1275728.671401	6.756589e-01	28	none	NaN	NaN
121	5	49	57	bathroom	sun_axldvoqbuvuggfmq.tif	1275729.441050	1275729.699642	1275730.406426	7.757565e-01	47	none	NaN	NaN
121	5	50	50	bathroom	sun_aspsyogrekjtfozg.tif	1275731.176101	1275731.434688	1275732.141436	8.091224e-01	40	none	NaN	NaN
121	5	51	50	bathroom	sun_aspsyogrekjtfozg.tif	1275732.911151	1275733.169743	1275733.876551	7.674151e-01	40	none	NaN	NaN
121	5	52	58	bathroom	sun_axxbkopsgyouuebh.tif	1275734.646208	1275734.904787	1275735.611537	8.258053e-01	48	none	NaN	NaN
121	5	53	13	bathroom	sun_aavhrsfjbserjtht.tif	1275736.381252	1275736.639842	1275737.346652	8.258053e-01	3	none	NaN	NaN
121	5	54	28	bathroom	sun_ahijqszoswveeyji.tif	1275738.116307	1275738.374898	1275739.081790	7.423907e-01	18	none	NaN	NaN
121	5	55	31	bathroom	sun_akiytfaagpdsphgz.tif	1275739.851327	1275740.109941	1275740.816813	7.590736e-01	21	none	NaN	NaN
121	5	56	14	bathroom	sun_abapwbhyhkfixyex.tif	1275741.586402	1275741.844998	1275742.551780	8.341468e-01	4	none	NaN	NaN
121	5	57	26	bathroom	sun_ahaulkltgpkeeemi.tif	1275743.321453	1275743.580044	1275744.286911	7.340492e-01	16	none	NaN	NaN
121	5	58	45	bathroom	sun_apkxzenqapsujocq.tif	1275745.056503	1275745.315097	1275746.021858	8.258053e-01	35	none	NaN	NaN
121	5	59	52	bathroom	sun_aunuadmjocsddsrl.tif	1275746.791558	1275747.050152	1275747.756880	7.840980e-01	42	none	NaN	NaN
121	5	60	15	bathroom	sun_abjtwfukuwddzted.tif	1275748.526607	1275748.785194	1275749.491895	8.424883e-01	5	none	NaN	NaN
121	5	61	42	bathroom	sun_apeeialkgkuxddgh.tif	1275750.253320	1275750.511905	1275751.218869	8.341468e-01	32	none	NaN	NaN
121	5	62	32	bathroom	sun_aleqenyvunhactkl.tif	1275751.988370	1275752.246954	1275752.953739	8.341468e-01	22	none	NaN	NaN
121	5	63	34	bathroom	sun_alkosphxlxwjwgjd.tif	1275753.723420	1275753.982002	1275754.688704	7.757565e-01	24	none	NaN	NaN
121	5	64	16	bathroom	sun_acduarbnmmoglmiv.tif	1275755.450131	1275755.708714	1275756.415570	8.258053e-01	6	none	NaN	NaN
121	5	65	44	bathroom	sun_apkruvsevgegsdwp.tif	1275757.185173	1275757.443765	1275758.150524	7.590736e-01	34	none	NaN	NaN
121	5	66	36	bathroom	sun_ambriybtogmepttm.tif	1275758.920225	1275759.178817	1275759.885610	7.507321e-01	26	none	NaN	NaN
121	5	67	27	bathroom	sun_ahcvzmoyaycdoftf.tif	1275760.655279	1275760.913866	1275761.620694	6.840004e-01	17	none	NaN	NaN
121	5	68	33	bathroom	sun_aljolscmmzydegqp.tif	1275762.390329	1275762.648916	1275763.355758	8.174639e-01	23	37	1275764.866652	0
121	5	69	49	bathroom	sun_asfwthctfqerjvxr.tif	1275765.643545	1275765.902131	1275766.608955	6.923418e-01	39	none	NaN	NaN
121	5	70	46	bathroom	sun_apmqjbnwghzuhhzh.tif	1275767.378596	1275767.637185	1275768.344069	6.589760e-01	36	37	1275769.611010	0
121	5	71	60	bathroom	sun_azqyogdvyhahyram.tif	1275770.381566	1275770.640158	1275771.347064	6.923418e-01	50	37	1275772.186595	1
121	5	72	56	bathroom	sun_awnqiikzaispgmwo.tif	1275772.959120	1275773.217714	1275773.924464	8.341468e-01	46	none	NaN	NaN
121	5	73	53	bathroom	sun_ausgutylgojavyoq.tif	1275774.694171	1275774.952759	1275775.659541	7.924395e-01	43	none	NaN	NaN
121	5	74	12	bathroom	sun_aapitsgbtktqubfy.tif	1275776.429222	1275776.687808	1275777.394711	7.924395e-01	2	none	NaN	NaN
121	5	75	38	bathroom	sun_anhioqovhscjqqwb.tif	1275778.164271	1275778.422861	1275779.129671	6.923418e-01	28	none	NaN	NaN
121	5	76	47	bathroom	sun_apynckhmoftszqoq.tif	1275779.899327	1275780.157909	1275780.864775	6.923418e-01	37	none	NaN	NaN
121	5	77	55	bathroom	sun_avhrdrntsqrjzccq.tif	1275781.634374	1275781.892962	1275782.599822	6.840004e-01	45	none	NaN	NaN
121	5	78	29	bathroom	sun_ahqjwnzgolcaoidx.tif	1275783.369426	1275783.628017	1275784.334780	8.424883e-01	19	none	NaN	NaN
121	5	79	20	bathroom	sun_afcoljnjfoxjtgja.tif	1275785.104474	1275785.363069	1275786.069963	7.840980e-01	10	37	1275786.898382	1
121	5	80	59	bathroom	sun_axyrejkiiaqiurjk.tif	1275787.673683	1275787.932269	1275788.639149	6.506345e-01	49	none	NaN	NaN
121	5	81	39	bathroom	sun_anryaplzeujmzfkd.tif	1275789.408738	1275789.667321	1275790.374107	7.257077e-01	29	none	NaN	NaN
121	5	82	18	bathroom	sun_acgyywnybuveqsro.tif	1275791.143782	1275791.402375	1275792.109138	7.340492e-01	8	none	NaN	NaN
121	5	83	21	bathroom	sun_aggnnqpdorgxpvce.tif	1275792.878834	1275793.137428	1275793.844209	7.090248e-01	11	none	NaN	NaN
121	5	84	37	bathroom	sun_amzlamotzwfkwjco.tif	1275794.613883	1275794.872475	1275795.579393	7.173662e-01	27	37	1275796.330666	0
121	5	85	11	bathroom	labelme_sfxiulhjbhlyiyt.tif	1275797.108017	1275797.366607	1275798.073497	7.340492e-01	1	37	1275800.074759	1
121	5	86	35	bathroom	sun_alotolagknyrgtsk.tif	1275800.845051	1275801.103643	1275801.810428	7.507321e-01	25	37	1275802.434546	1
121	5	87	30	bathroom	sun_ajlawzvmubibwbpy.tif	1275803.205720	1275803.464313	1275804.171114	7.674151e-01	20	none	NaN	NaN
121	5	88	57	bathroom	sun_axldvoqbuvuggfmq.tif	1275804.940767	1275805.199367	1275805.906124	6.840004e-01	47	none	NaN	NaN
121	5	89	22	bathroom	sun_agguqiubmwhqqunb.tif	1275806.675823	1275806.934410	1275807.641166	6.756589e-01	12	none	NaN	NaN
121	5	90	19	bathroom	sun_aclfzgynxzxlbepz.tif	1275808.410870	1275808.669461	1275809.376168	7.340492e-01	9	none	NaN	NaN
121	5	91	25	bathroom	sun_agyqfjcfkdcydepw.tif	1275810.145925	1275810.404514	1275811.111327	6.673174e-01	15	37	1275811.938642	1
121	5	92	43	bathroom	sun_apjevzvycyhuqghb.tif	1275812.715130	1275812.973726	1275813.680617	6.673174e-01	33	none	NaN	NaN
121	5	93	54	bathroom	sun_auzqhkafidnkrwmo.tif	1275814.450182	1275814.708772	1275815.415477	7.757565e-01	44	none	NaN	NaN
121	5	94	51	bathroom	sun_atstyziqcmkahyxk.tif	1275816.185237	1275816.443818	1275817.150547	7.423907e-01	41	none	NaN	NaN
121	5	95	24	bathroom	sun_agrwbmhcpmfuwmsg.tif	1275817.920284	1275818.178872	1275818.885719	6.840004e-01	14	none	NaN	NaN
121	5	96	23	bathroom	sun_aghyqhbptboemmoq.tif	1275819.655337	1275819.913923	1275820.620815	6.923418e-01	13	37	1275821.546630	0
121	5	97	40	bathroom	sun_aofnryafpsjimzsb.tif	1275822.324641	1275822.583231	1275823.289935	6.506345e-01	30	none	NaN	NaN
121	5	98	41	bathroom	sun_aoybiabnpadelefl.tif	1275824.051349	1275824.309942	1275825.016809	7.507321e-01	31	none	NaN	NaN
121	5	99	48	bathroom	sun_aqrpegblszgcoujh.tif	1275825.786404	1275826.044997	1275826.751895	7.924395e-01	38	none	NaN	NaN
121	5	100	17	bathroom	sun_acegryoqftbzowsg.tif	1275827.521455	1275827.780044	1275828.486951	8.258053e-01	7	none	NaN	NaN
121	6	1	64	kitchen	sun_aadbddgrdsjugojn.tif	1275887.297280	1275887.555870	1275888.296103	8.424883e-01	54	none	NaN	NaN
121	6	2	81	kitchen	sun_aehawpgmrlhlvcow.tif	1275889.065695	1275889.324288	1275890.064399	7.090248e-01	71	none	NaN	NaN
121	6	3	108	kitchen	sun_aymvwlarqodbwuoc.tif	1275890.834111	1275891.092701	1275891.832954	6.840004e-01	98	none	NaN	NaN
121	6	4	65	kitchen	sun_aamedkxepzlwuxes.tif	1275892.602529	1275892.861119	1275893.601198	8.258053e-01	55	none	NaN	NaN
121	6	5	87	kitchen	sun_agorklincwxrdtga.tif	1275894.370946	1275894.629535	1275895.369651	8.174639e-01	77	none	NaN	NaN
121	6	6	90	kitchen	sun_ahdycvpopffkzzsu.tif	1275896.139365	1275896.397956	1275897.138223	7.507321e-01	80	none	NaN	NaN
121	6	7	99	kitchen	sun_akcjzhbbjlbogpdi.tif	1275897.907780	1275898.166366	1275898.906464	7.674151e-01	89	37	1275900.210690	0
121	6	8	93	kitchen	sun_ahspylgoovwmwvgk.tif	1275900.985823	1275901.244417	1275901.984506	7.006833e-01	83	none	NaN	NaN
121	6	9	62	kitchen	labelme_kxvouciolcpqplr.tif	1275902.754245	1275903.012830	1275903.752994	6.673174e-01	52	none	NaN	NaN
121	6	10	69	kitchen	sun_abdenxonkemggwsq.tif	1275904.522662	1275904.781247	1275905.521324	6.840004e-01	59	none	NaN	NaN
121	6	11	98	kitchen	sun_akchetnepxlcxhsu.tif	1275906.291074	1275906.549669	1275907.289757	7.840980e-01	88	none	NaN	NaN
121	6	12	106	kitchen	sun_awcpdzzznmweyyhv.tif	1275908.059494	1275908.318081	1275909.058247	7.924395e-01	96	none	NaN	NaN
121	6	13	109	kitchen	sun_aypmqwcualkenuoe.tif	1275909.827911	1275910.086503	1275910.826626	6.923418e-01	99	none	NaN	NaN
121	6	14	100	kitchen	sun_amjjdeyrggfqgmom.tif	1275911.596325	1275911.854920	1275912.595073	7.173662e-01	90	none	NaN	NaN
121	6	15	89	kitchen	sun_agzzivivdpnawacl.tif	1275913.364745	1275913.623333	1275914.363538	8.258053e-01	79	none	NaN	NaN
121	6	16	103	kitchen	sun_aunzlwrbjumxhwdj.tif	1275915.133159	1275915.391751	1275916.131810	6.923418e-01	93	none	NaN	NaN
121	6	17	78	kitchen	sun_adgqasybjyktddhj.tif	1275916.901580	1275917.160167	1275917.900401	8.341468e-01	68	none	NaN	NaN
121	6	18	68	kitchen	sun_aaxxjlsuzvqlgylf.tif	1275918.669996	1275918.928589	1275919.668733	8.258053e-01	58	none	NaN	NaN
121	6	19	71	kitchen	sun_abftihopvusyfakt.tif	1275920.438411	1275920.697002	1275921.437158	7.090248e-01	61	none	NaN	NaN
121	6	20	105	kitchen	sun_avszsnwsbuqfgzbn.tif	1275922.206827	1275922.465418	1275923.205632	6.506345e-01	95	37	1275924.370465	0
121	6	21	73	kitchen	sun_abrcnpqqhmjwekyf.tif	1275925.143070	1275925.401653	1275926.141722	7.590736e-01	63	none	NaN	NaN
121	6	22	67	kitchen	sun_aarfiyshqohlwkmo.tif	1275926.911484	1275927.170076	1275927.910287	7.757565e-01	57	none	NaN	NaN
121	6	23	86	kitchen	sun_aggjlwcdjsjcaemh.tif	1275928.679900	1275928.938494	1275929.678729	8.007809e-01	76	none	NaN	NaN
121	6	24	74	kitchen	sun_acfmftudsenhrfhy.tif	1275930.448319	1275930.706912	1275931.447190	6.589760e-01	64	none	NaN	NaN
121	6	25	66	kitchen	sun_aapllqyqlykszopd.tif	1275932.216735	1275932.475327	1275933.215608	7.173662e-01	56	none	NaN	NaN
121	6	26	95	kitchen	sun_aixorpehvfykdynp.tif	1275933.985152	1275934.243739	1275934.983816	7.590736e-01	85	none	NaN	NaN
121	6	27	70	kitchen	sun_abdxkyyxwfskuaqb.tif	1275935.745226	1275936.003818	1275936.744043	8.341468e-01	60	37	1275937.626541	0
121	6	28	75	kitchen	sun_acgtpgfybqjmzeyw.tif	1275938.397851	1275938.656437	1275939.396591	8.424883e-01	65	none	NaN	NaN
121	6	29	94	kitchen	sun_ahywdevtimnqcsln.tif	1275940.166271	1275940.424859	1275941.165073	7.423907e-01	84	none	NaN	NaN
121	6	30	85	kitchen	sun_afuyedyxivkhecmu.tif	1275941.934683	1275942.193271	1275942.933521	7.840980e-01	75	none	NaN	NaN
121	6	31	107	kitchen	sun_axyyrmzcupyhlivc.tif	1275943.703103	1275943.961691	1275944.701873	8.174639e-01	97	none	NaN	NaN
121	6	32	91	kitchen	sun_ahljzhgcdpomplvg.tif	1275945.471523	1275945.730107	1275946.470267	7.257077e-01	81	none	NaN	NaN
121	6	33	96	kitchen	sun_ajcbwwvdlsvjyzje.tif	1275947.239936	1275947.498526	1275948.238618	7.757565e-01	86	39	1275949.898591	1
121	6	34	82	kitchen	sun_aenotlpyftoioydp.tif	1275950.676697	1275950.935260	1275951.675517	7.590736e-01	72	39	1275953.354558	0
121	6	35	102	kitchen	sun_auaiucuqpdausiva.tif	1275954.130092	1275954.388679	1275955.128870	8.007809e-01	92	37	1275956.218232	1
121	6	36	72	kitchen	sun_abpwyqmlzafvklqo.tif	1275956.991252	1275957.249845	1275957.990002	7.257077e-01	62	none	NaN	NaN
121	6	37	84	kitchen	sun_aexklacwqwezaorf.tif	1275958.759668	1275959.018260	1275959.758410	7.674151e-01	74	37	1275960.770585	0
121	6	38	101	kitchen	sun_aqeaevwwwjoqhzvl.tif	1275961.545762	1275961.804348	1275962.544539	7.674151e-01	91	none	NaN	NaN
121	6	39	110	kitchen	sun_azmutvzbxypaceni.tif	1275963.314179	1275963.572770	1275964.312910	6.589760e-01	100	none	NaN	NaN
121	6	40	83	kitchen	sun_aeqdocilnnpuvuhx.tif	1275965.082595	1275965.341188	1275966.081413	8.007809e-01	73	none	NaN	NaN
121	6	41	77	kitchen	sun_acxkpeoqbwcxfvip.tif	1275966.851011	1275967.109606	1275967.849682	8.258053e-01	67	none	NaN	NaN
121	6	42	63	kitchen	labelme_rykdqxenmhulbdn.tif	1275968.611094	1275968.869671	1275969.609789	6.506345e-01	53	none	NaN	NaN
121	6	43	80	kitchen	sun_aegoxogugdkwpmpj.tif	1275970.379506	1275970.638094	1275971.378202	7.090248e-01	70	none	NaN	NaN
121	6	44	79	kitchen	sun_admlmbcdswaszruo.tif	1275972.147926	1275972.406511	1275973.146595	7.924395e-01	69	37	1275973.898608	1
121	6	45	61	kitchen	labelme_brsyyvweiuaazfr.tif	1275974.675421	1275974.934011	1275975.674097	7.006833e-01	51	none	NaN	NaN
121	6	46	97	kitchen	sun_ajkqhtgcbgpcwrwn.tif	1275976.443839	1275976.702427	1275977.442525	7.090248e-01	87	none	NaN	NaN
121	6	47	88	kitchen	sun_agubuxuukhzyzpdp.tif	1275978.212255	1275978.470851	1275979.211073	7.340492e-01	78	none	NaN	NaN
121	6	48	104	kitchen	sun_auticobqsbwgoppi.tif	1275979.980676	1275980.239263	1275980.979489	7.757565e-01	94	none	NaN	NaN
121	6	49	76	kitchen	sun_acwjdupvyjsugpay.tif	1275981.749092	1275982.007678	1275982.747927	7.590736e-01	66	none	NaN	NaN
121	6	50	92	kitchen	sun_ahpczsiumwwocjkv.tif	1275983.517509	1275983.776094	1275984.516209	7.173662e-01	82	none	NaN	NaN
121	6	51	105	kitchen	sun_avszsnwsbuqfgzbn.tif	1275985.285927	1275985.544518	1275986.284723	8.258053e-01	95	none	NaN	NaN
121	6	52	92	kitchen	sun_ahpczsiumwwocjkv.tif	1275987.054341	1275987.312932	1275988.053022	8.341468e-01	82	none	NaN	NaN
121	6	53	83	kitchen	sun_aeqdocilnnpuvuhx.tif	1275988.822763	1275989.081344	1275989.821607	7.340492e-01	73	none	NaN	NaN
121	6	54	94	kitchen	sun_ahywdevtimnqcsln.tif	1275990.591176	1275990.849766	1275991.589855	8.091224e-01	84	none	NaN	NaN
121	6	55	101	kitchen	sun_aqeaevwwwjoqhzvl.tif	1275992.359592	1275992.618179	1275993.358439	7.006833e-01	91	none	NaN	NaN
121	6	56	81	kitchen	sun_aehawpgmrlhlvcow.tif	1275994.128014	1275994.386599	1275995.126735	6.840004e-01	71	none	NaN	NaN
121	6	57	87	kitchen	sun_agorklincwxrdtga.tif	1275995.896423	1275996.155019	1275996.895091	8.091224e-01	77	none	NaN	NaN
121	6	58	89	kitchen	sun_agzzivivdpnawacl.tif	1275997.664845	1275997.923429	1275998.663682	7.257077e-01	79	none	NaN	NaN
121	6	59	74	kitchen	sun_acfmftudsenhrfhy.tif	1275999.433261	1275999.691850	1276000.431968	8.007809e-01	64	none	NaN	NaN
121	6	60	67	kitchen	sun_aarfiyshqohlwkmo.tif	1276001.201678	1276001.460268	1276002.200330	6.923418e-01	57	none	NaN	NaN
121	6	61	63	kitchen	labelme_rykdqxenmhulbdn.tif	1276002.970095	1276003.228682	1276003.968824	6.673174e-01	53	none	NaN	NaN
121	6	62	84	kitchen	sun_aexklacwqwezaorf.tif	1276004.738512	1276004.997098	1276005.737228	6.589760e-01	74	none	NaN	NaN
121	6	63	103	kitchen	sun_aunzlwrbjumxhwdj.tif	1276006.506925	1276006.765537	1276007.505782	6.923418e-01	93	37	1276008.410468	1
121	6	64	91	kitchen	sun_ahljzhgcdpomplvg.tif	1276009.184579	1276009.443164	1276010.183299	6.923418e-01	81	none	NaN	NaN
121	6	65	62	kitchen	labelme_kxvouciolcpqplr.tif	1276010.952995	1276011.211584	1276011.951841	7.423907e-01	52	39	1276013.538153	1
121	6	66	106	kitchen	sun_awcpdzzznmweyyhv.tif	1276014.314654	1276014.573244	1276015.313499	6.673174e-01	96	none	NaN	NaN
121	6	67	68	kitchen	sun_aaxxjlsuzvqlgylf.tif	1276016.083073	1276016.341660	1276017.081883	7.507321e-01	58	none	NaN	NaN
121	6	68	65	kitchen	sun_aamedkxepzlwuxes.tif	1276017.851486	1276018.110078	1276018.850151	7.340492e-01	55	none	NaN	NaN
121	6	69	96	kitchen	sun_ajcbwwvdlsvjyzje.tif	1276019.619908	1276019.878494	1276020.618574	7.006833e-01	86	none	NaN	NaN
121	6	70	110	kitchen	sun_azmutvzbxypaceni.tif	1276021.388323	1276021.646914	1276022.387185	8.424883e-01	100	none	NaN	NaN
121	6	71	77	kitchen	sun_acxkpeoqbwcxfvip.tif	1276023.156741	1276023.415330	1276024.155613	8.508297e-01	67	37	1276024.962541	0
121	6	72	86	kitchen	sun_aggjlwcdjsjcaemh.tif	1276025.734291	1276025.992880	1276026.733093	7.924395e-01	76	none	NaN	NaN
121	6	73	64	kitchen	sun_aadbddgrdsjugojn.tif	1276027.502708	1276027.761300	1276028.501453	6.756589e-01	54	none	NaN	NaN
121	6	74	76	kitchen	sun_acwjdupvyjsugpay.tif	1276029.271125	1276029.529711	1276030.269827	8.174639e-01	66	none	NaN	NaN
121	6	75	104	kitchen	sun_auticobqsbwgoppi.tif	1276031.039540	1276031.298126	1276032.038397	8.508297e-01	94	none	NaN	NaN
121	6	76	95	kitchen	sun_aixorpehvfykdynp.tif	1276032.807955	1276033.066549	1276033.806624	7.507321e-01	85	none	NaN	NaN
121	6	77	109	kitchen	sun_aypmqwcualkenuoe.tif	1276034.576376	1276034.834965	1276035.575180	8.341468e-01	99	none	NaN	NaN
121	6	78	108	kitchen	sun_aymvwlarqodbwuoc.tif	1276036.344789	1276036.603380	1276037.343514	6.756589e-01	98	37	1276038.090430	1
121	6	79	100	kitchen	sun_amjjdeyrggfqgmom.tif	1276038.863951	1276039.122543	1276039.862734	7.590736e-01	90	none	NaN	NaN
121	6	80	99	kitchen	sun_akcjzhbbjlbogpdi.tif	1276040.632369	1276040.890951	1276041.631106	6.589760e-01	89	none	NaN	NaN
121	6	81	70	kitchen	sun_abdxkyyxwfskuaqb.tif	1276042.400784	1276042.659379	1276043.399608	7.173662e-01	60	none	NaN	NaN
121	6	82	75	kitchen	sun_acgtpgfybqjmzeyw.tif	1276044.169203	1276044.427791	1276045.168007	6.673174e-01	65	37	1276045.674446	1
121	6	83	90	kitchen	sun_ahdycvpopffkzzsu.tif	1276046.446460	1276046.705045	1276047.445286	6.756589e-01	80	none	NaN	NaN
121	6	84	97	kitchen	sun_ajkqhtgcbgpcwrwn.tif	1276048.214872	1276048.473456	1276049.213722	6.840004e-01	87	none	NaN	NaN
121	6	85	88	kitchen	sun_agubuxuukhzyzpdp.tif	1276049.983290	1276050.241881	1276050.982020	6.506345e-01	78	none	NaN	NaN
121	6	86	80	kitchen	sun_aegoxogugdkwpmpj.tif	1276051.751697	1276052.010294	1276052.750349	8.091224e-01	70	none	NaN	NaN
121	6	87	82	kitchen	sun_aenotlpyftoioydp.tif	1276053.520123	1276053.778714	1276054.518966	7.257077e-01	72	none	NaN	NaN
121	6	88	102	kitchen	sun_auaiucuqpdausiva.tif	1276055.288537	1276055.547127	1276056.287309	7.924395e-01	92	37	1276057.082472	0
121	6	89	66	kitchen	sun_aapllqyqlykszopd.tif	1276057.857747	1276058.116339	1276058.856396	7.840980e-01	56	none	NaN	NaN
121	6	90	78	kitchen	sun_adgqasybjyktddhj.tif	1276059.617824	1276059.876417	1276060.616561	8.091224e-01	68	none	NaN	NaN
121	6	91	61	kitchen	labelme_brsyyvweiuaazfr.tif	1276061.377903	1276061.636487	1276062.376738	8.174639e-01	51	none	NaN	NaN
121	6	92	79	kitchen	sun_admlmbcdswaszruo.tif	1276063.146316	1276063.404914	1276064.145076	8.424883e-01	69	37	1276064.730411	1
121	6	93	73	kitchen	sun_abrcnpqqhmjwekyf.tif	1276065.506985	1276065.765576	1276066.505661	7.674151e-01	63	none	NaN	NaN
121	6	94	69	kitchen	sun_abdenxonkemggwsq.tif	1276067.275402	1276067.533993	1276068.274218	6.756589e-01	59	none	NaN	NaN
121	6	95	98	kitchen	sun_akchetnepxlcxhsu.tif	1276069.043819	1276069.302408	1276070.042608	7.757565e-01	88	none	NaN	NaN
121	6	96	107	kitchen	sun_axyyrmzcupyhlivc.tif	1276070.812238	1276071.070829	1276071.811011	7.840980e-01	97	none	NaN	NaN
121	6	97	71	kitchen	sun_abftihopvusyfakt.tif	1276072.580658	1276072.839247	1276073.579377	7.507321e-01	61	none	NaN	NaN
121	6	98	85	kitchen	sun_afuyedyxivkhecmu.tif	1276074.349071	1276074.607662	1276075.347940	7.340492e-01	75	none	NaN	NaN
121	6	99	93	kitchen	sun_ahspylgoovwmwvgk.tif	1276076.117486	1276076.376079	1276077.116233	7.423907e-01	83	none	NaN	NaN
121	6	100	72	kitchen	sun_abpwyqmlzafvklqo.tif	1276077.885903	1276078.144490	1276078.884638	7.423907e-01	62	none	NaN	NaN
121	7	1	30	bathroom	sun_ajlawzvmubibwbpy.tif	1276089.897793	1276090.156383	1276090.846411	6.673174e-01	20	37	1276091.554384	1
121	7	2	24	bathroom	sun_agrwbmhcpmfuwmsg.tif	1276092.325194	1276092.583790	1276093.273943	7.423907e-01	14	none	NaN	NaN
121	7	3	18	bathroom	sun_acgyywnybuveqsro.tif	1276094.043565	1276094.302153	1276094.992342	7.674151e-01	8	none	NaN	NaN
121	7	4	11	bathroom	labelme_sfxiulhjbhlyiyt.tif	1276095.761931	1276096.020523	1276096.710741	7.507321e-01	1	none	NaN	NaN
121	7	5	36	bathroom	sun_ambriybtogmepttm.tif	1276097.480302	1276097.738888	1276098.428977	7.840980e-01	26	none	NaN	NaN
121	7	6	59	bathroom	sun_axyrejkiiaqiurjk.tif	1276099.198662	1276099.457253	1276100.147289	8.007809e-01	49	39	1276101.402500	1
121	7	7	41	bathroom	sun_aoybiabnpadelefl.tif	1276102.176613	1276102.435201	1276103.125263	7.006833e-01	31	none	NaN	NaN
121	7	8	27	bathroom	sun_ahcvzmoyaycdoftf.tif	1276103.894980	1276104.153566	1276104.843684	7.340492e-01	17	none	NaN	NaN
121	7	9	33	bathroom	sun_aljolscmmzydegqp.tif	1276105.613343	1276105.871933	1276106.561990	7.423907e-01	23	none	NaN	NaN
121	7	10	19	bathroom	sun_aclfzgynxzxlbepz.tif	1276107.331711	1276107.590307	1276108.280399	6.756589e-01	9	none	NaN	NaN
121	7	11	50	bathroom	sun_aspsyogrekjtfozg.tif	1276109.050083	1276109.308670	1276109.998714	7.507321e-01	40	none	NaN	NaN
121	7	12	25	bathroom	sun_agyqfjcfkdcydepw.tif	1276110.768446	1276111.027039	1276111.717068	6.506345e-01	15	37	1276112.298139	1
121	7	13	48	bathroom	sun_aqrpegblszgcoujh.tif	1276113.070729	1276113.329320	1276114.019348	8.007809e-01	38	none	NaN	NaN
121	7	14	52	bathroom	sun_aunuadmjocsddsrl.tif	1276114.789095	1276115.047685	1276115.737896	8.341468e-01	42	none	NaN	NaN
121	7	15	45	bathroom	sun_apkxzenqapsujocq.tif	1276116.507462	1276116.766050	1276117.456103	7.924395e-01	35	none	NaN	NaN
121	7	16	54	bathroom	sun_auzqhkafidnkrwmo.tif	1276118.225827	1276118.484420	1276119.174538	6.840004e-01	44	none	NaN	NaN
121	7	17	43	bathroom	sun_apjevzvycyhuqghb.tif	1276119.944193	1276120.202783	1276120.892802	6.923418e-01	33	37	1276121.466314	1
121	7	18	23	bathroom	sun_aghyqhbptboemmoq.tif	1276122.238132	1276122.496722	1276123.186836	7.590736e-01	13	none	NaN	NaN
121	7	19	57	bathroom	sun_axldvoqbuvuggfmq.tif	1276123.956498	1276124.215092	1276124.905305	7.507321e-01	47	none	NaN	NaN
121	7	20	13	bathroom	sun_aavhrsfjbserjtht.tif	1276125.674864	1276125.933455	1276126.623497	8.174639e-01	3	none	NaN	NaN
121	7	21	28	bathroom	sun_ahijqszoswveeyji.tif	1276127.393237	1276127.651826	1276128.341840	7.340492e-01	18	39	1276129.802305	1
121	7	22	51	bathroom	sun_atstyziqcmkahyxk.tif	1276130.579722	1276130.838309	1276131.528493	7.257077e-01	41	none	NaN	NaN
121	7	23	55	bathroom	sun_avhrdrntsqrjzccq.tif	1276132.298088	1276132.556678	1276133.246734	7.090248e-01	45	none	NaN	NaN
121	7	24	40	bathroom	sun_aofnryafpsjimzsb.tif	1276134.016453	1276134.275044	1276134.965115	6.923418e-01	30	none	NaN	NaN
121	7	25	44	bathroom	sun_apkruvsevgegsdwp.tif	1276135.734822	1276135.993417	1276136.683538	8.091224e-01	34	none	NaN	NaN
121	7	26	42	bathroom	sun_apeeialkgkuxddgh.tif	1276137.453190	1276137.711782	1276138.401945	8.174639e-01	32	none	NaN	NaN
121	7	27	20	bathroom	sun_afcoljnjfoxjtgja.tif	1276139.171561	1276139.430145	1276140.120252	7.173662e-01	10	none	NaN	NaN
121	7	28	17	bathroom	sun_acegryoqftbzowsg.tif	1276140.889924	1276141.148513	1276141.838644	8.258053e-01	7	none	NaN	NaN
121	7	29	37	bathroom	sun_amzlamotzwfkwjco.tif	1276142.608298	1276142.866885	1276143.557069	6.923418e-01	27	none	NaN	NaN
121	7	30	16	bathroom	sun_acduarbnmmoglmiv.tif	1276144.326662	1276144.585246	1276145.275386	6.840004e-01	6	none	NaN	NaN
121	7	31	34	bathroom	sun_alkosphxlxwjwgjd.tif	1276146.045028	1276146.303619	1276146.993830	8.341468e-01	24	none	NaN	NaN
121	7	32	49	bathroom	sun_asfwthctfqerjvxr.tif	1276147.763398	1276148.021986	1276148.712126	7.674151e-01	39	none	NaN	NaN
121	7	33	31	bathroom	sun_akiytfaagpdsphgz.tif	1276149.481763	1276149.740349	1276150.430530	7.924395e-01	21	none	NaN	NaN
121	7	34	53	bathroom	sun_ausgutylgojavyoq.tif	1276151.200133	1276151.458717	1276152.149030	7.090248e-01	43	37	1276152.978536	0
121	7	35	39	bathroom	sun_anryaplzeujmzfkd.tif	1276153.752657	1276154.011245	1276154.701419	8.424883e-01	29	none	NaN	NaN
121	7	36	21	bathroom	sun_aggnnqpdorgxpvce.tif	1276155.471025	1276155.729619	1276156.419833	7.924395e-01	11	37	1276157.194291	0
121	7	37	56	bathroom	sun_awnqiikzaispgmwo.tif	1276157.965159	1276158.223745	1276158.913801	7.340492e-01	46	none	NaN	NaN
121	7	38	14	bathroom	sun_abapwbhyhkfixyex.tif	1276159.683525	1276159.942114	1276160.632273	8.174639e-01	4	none	NaN	NaN
121	7	39	60	bathroom	sun_azqyogdvyhahyram.tif	1276161.401894	1276161.660482	1276162.350680	7.590736e-01	50	none	NaN	NaN
121	7	40	38	bathroom	sun_anhioqovhscjqqwb.tif	1276163.120263	1276163.378848	1276164.068898	8.258053e-01	28	none	NaN	NaN
121	7	41	47	bathroom	sun_apynckhmoftszqoq.tif	1276164.838623	1276165.097218	1276165.787432	6.506345e-01	37	none	NaN	NaN
121	7	42	12	bathroom	sun_aapitsgbtktqubfy.tif	1276166.556995	1276166.815522	1276167.505683	8.007809e-01	2	none	NaN	NaN
121	7	43	22	bathroom	sun_agguqiubmwhqqunb.tif	1276168.275363	1276168.533955	1276169.224167	7.423907e-01	12	37	1276169.938279	1
121	7	44	46	bathroom	sun_apmqjbnwghzuhhzh.tif	1276170.711105	1276170.969693	1276171.659724	8.341468e-01	36	none	NaN	NaN
121	7	45	58	bathroom	sun_axxbkopsgyouuebh.tif	1276172.429472	1276172.688064	1276173.379089	8.258053e-01	48	none	NaN	NaN
121	7	46	35	bathroom	sun_alotolagknyrgtsk.tif	1276174.147843	1276174.406430	1276175.096471	8.424883e-01	25	none	NaN	NaN
121	7	47	26	bathroom	sun_ahaulkltgpkeeemi.tif	1276175.866210	1276176.124797	1276176.815236	8.091224e-01	16	none	NaN	NaN
121	7	48	29	bathroom	sun_ahqjwnzgolcaoidx.tif	1276177.584574	1276177.843169	1276178.533272	6.673174e-01	19	none	NaN	NaN
121	7	49	32	bathroom	sun_aleqenyvunhactkl.tif	1276179.302943	1276179.561532	1276180.251551	7.590736e-01	22	none	NaN	NaN
121	7	50	15	bathroom	sun_abjtwfukuwddzted.tif	1276181.021312	1276181.279902	1276181.970062	6.589760e-01	5	none	NaN	NaN
121	7	51	16	bathroom	sun_acduarbnmmoglmiv.tif	1276182.739679	1276182.998287	1276183.688308	7.173662e-01	6	none	NaN	NaN
121	7	52	53	bathroom	sun_ausgutylgojavyoq.tif	1276184.458044	1276184.716640	1276185.406767	8.341468e-01	43	none	NaN	NaN
121	7	53	23	bathroom	sun_aghyqhbptboemmoq.tif	1276186.176410	1276186.435001	1276187.125064	7.757565e-01	13	none	NaN	NaN
121	7	54	17	bathroom	sun_acegryoqftbzowsg.tif	1276187.894778	1276188.153370	1276188.843537	6.673174e-01	7	none	NaN	NaN
121	7	55	32	bathroom	sun_aleqenyvunhactkl.tif	1276189.613145	1276189.871738	1276190.561830	8.424883e-01	22	37	1276191.082415	1
121	7	56	37	bathroom	sun_amzlamotzwfkwjco.tif	1276191.857037	1276192.115625	1276192.805725	8.091224e-01	27	none	NaN	NaN
121	7	57	59	bathroom	sun_axyrejkiiaqiurjk.tif	1276193.575405	1276193.833992	1276194.524039	7.507321e-01	49	39	1276197.090281	1
121	7	58	41	bathroom	sun_aoybiabnpadelefl.tif	1276197.862977	1276198.121566	1276198.811633	7.006833e-01	31	none	NaN	NaN
121	7	59	26	bathroom	sun_ahaulkltgpkeeemi.tif	1276199.581347	1276199.839939	1276200.530087	8.091224e-01	16	none	NaN	NaN
121	7	60	55	bathroom	sun_avhrdrntsqrjzccq.tif	1276201.299710	1276201.558298	1276202.248355	6.756589e-01	45	none	NaN	NaN
121	7	61	40	bathroom	sun_aofnryafpsjimzsb.tif	1276203.018079	1276203.276669	1276203.966761	7.340492e-01	30	none	NaN	NaN
121	7	62	33	bathroom	sun_aljolscmmzydegqp.tif	1276204.736448	1276204.995038	1276205.685201	6.923418e-01	23	none	NaN	NaN
121	7	63	24	bathroom	sun_agrwbmhcpmfuwmsg.tif	1276206.454816	1276206.713404	1276207.403627	7.590736e-01	14	none	NaN	NaN
121	7	64	39	bathroom	sun_anryaplzeujmzfkd.tif	1276208.173186	1276208.431769	1276209.121933	8.508297e-01	29	none	NaN	NaN
121	7	65	38	bathroom	sun_anhioqovhscjqqwb.tif	1276209.891550	1276210.150138	1276210.840204	6.589760e-01	28	none	NaN	NaN
121	7	66	15	bathroom	sun_abjtwfukuwddzted.tif	1276211.609916	1276211.868508	1276212.558660	6.756589e-01	5	none	NaN	NaN
121	7	67	42	bathroom	sun_apeeialkgkuxddgh.tif	1276213.328283	1276213.586876	1276214.276993	7.840980e-01	32	none	NaN	NaN
121	7	68	11	bathroom	labelme_sfxiulhjbhlyiyt.tif	1276215.046652	1276215.305243	1276215.995389	8.508297e-01	1	none	NaN	NaN
121	7	69	12	bathroom	sun_aapitsgbtktqubfy.tif	1276216.765022	1276217.023612	1276217.713723	6.840004e-01	2	none	NaN	NaN
121	7	70	43	bathroom	sun_apjevzvycyhuqghb.tif	1276218.483383	1276218.741979	1276219.432050	7.257077e-01	33	none	NaN	NaN
121	7	71	47	bathroom	sun_apynckhmoftszqoq.tif	1276220.201750	1276220.460342	1276221.150463	8.007809e-01	37	37	1276221.850087	1
121	7	72	34	bathroom	sun_alkosphxlxwjwgjd.tif	1276222.629156	1276222.887746	1276223.577800	7.590736e-01	24	none	NaN	NaN
121	7	73	30	bathroom	sun_ajlawzvmubibwbpy.tif	1276224.347523	1276224.606112	1276225.296209	7.173662e-01	20	none	NaN	NaN
121	7	74	56	bathroom	sun_awnqiikzaispgmwo.tif	1276226.065894	1276226.324481	1276227.014556	6.589760e-01	46	none	NaN	NaN
121	7	75	36	bathroom	sun_ambriybtogmepttm.tif	1276227.784260	1276228.042844	1276228.733052	8.174639e-01	26	none	NaN	NaN
121	7	76	46	bathroom	sun_apmqjbnwghzuhhzh.tif	1276229.502623	1276229.761214	1276230.451403	6.673174e-01	36	none	NaN	NaN
121	7	77	14	bathroom	sun_abapwbhyhkfixyex.tif	1276231.220992	1276231.479582	1276232.169804	7.757565e-01	4	none	NaN	NaN
121	7	78	19	bathroom	sun_aclfzgynxzxlbepz.tif	1276232.939362	1276233.197950	1276233.888040	6.923418e-01	9	none	NaN	NaN
121	7	79	25	bathroom	sun_agyqfjcfkdcydepw.tif	1276234.657726	1276234.916317	1276235.606459	7.006833e-01	15	none	NaN	NaN
121	7	80	13	bathroom	sun_aavhrsfjbserjtht.tif	1276236.376095	1276236.634683	1276237.324912	7.257077e-01	3	none	NaN	NaN
121	7	81	60	bathroom	sun_azqyogdvyhahyram.tif	1276238.094463	1276238.353053	1276239.043239	7.423907e-01	50	none	NaN	NaN
121	7	82	50	bathroom	sun_aspsyogrekjtfozg.tif	1276239.812829	1276240.071418	1276240.761488	6.506345e-01	40	37	1276243.130418	0
121	7	83	22	bathroom	sun_agguqiubmwhqqunb.tif	1276243.908546	1276244.167139	1276244.857342	6.589760e-01	12	none	NaN	NaN
121	7	84	20	bathroom	sun_afcoljnjfoxjtgja.tif	1276245.626920	1276245.885510	1276246.575529	8.258053e-01	10	none	NaN	NaN
121	7	85	18	bathroom	sun_acgyywnybuveqsro.tif	1276247.345284	1276247.603874	1276248.294075	6.756589e-01	8	none	NaN	NaN
121	7	86	58	bathroom	sun_axxbkopsgyouuebh.tif	1276249.063653	1276249.322237	1276250.012462	7.757565e-01	48	none	NaN	NaN
121	7	87	35	bathroom	sun_alotolagknyrgtsk.tif	1276250.782025	1276251.040609	1276251.730726	7.257077e-01	25	none	NaN	NaN
121	7	88	44	bathroom	sun_apkruvsevgegsdwp.tif	1276252.500386	1276252.758977	1276253.449088	7.006833e-01	34	none	NaN	NaN
121	7	89	48	bathroom	sun_aqrpegblszgcoujh.tif	1276254.218753	1276254.477345	1276255.167478	7.840980e-01	38	none	NaN	NaN
121	7	90	45	bathroom	sun_apkxzenqapsujocq.tif	1276255.937119	1276256.195710	1276256.885873	7.840980e-01	35	none	NaN	NaN
121	7	91	57	bathroom	sun_axldvoqbuvuggfmq.tif	1276257.655489	1276257.914079	1276258.604242	7.090248e-01	47	37	1276259.514283	0
121	7	92	51	bathroom	sun_atstyziqcmkahyxk.tif	1276260.291432	1276260.550020	1276261.240250	7.173662e-01	41	none	NaN	NaN
121	7	93	31	bathroom	sun_akiytfaagpdsphgz.tif	1276262.009799	1276262.268388	1276262.958472	7.924395e-01	21	none	NaN	NaN
121	7	94	29	bathroom	sun_ahqjwnzgolcaoidx.tif	1276263.728160	1276263.986760	1276264.676968	8.258053e-01	19	none	NaN	NaN
121	7	95	54	bathroom	sun_auzqhkafidnkrwmo.tif	1276265.446535	1276265.705123	1276266.395271	8.424883e-01	44	37	1276267.170272	1
121	7	96	49	bathroom	sun_asfwthctfqerjvxr.tif	1276267.940672	1276268.199254	1276268.889302	7.757565e-01	39	none	NaN	NaN
121	7	97	52	bathroom	sun_aunuadmjocsddsrl.tif	1276269.659035	1276269.917627	1276270.607789	7.674151e-01	42	none	NaN	NaN
121	7	98	28	bathroom	sun_ahijqszoswveeyji.tif	1276271.377399	1276271.635995	1276272.326119	6.840004e-01	18	none	NaN	NaN
121	7	99	21	bathroom	sun_aggnnqpdorgxpvce.tif	1276273.095773	1276273.354363	1276274.044571	7.090248e-01	11	37	1276274.794220	1
121	7	100	27	bathroom	sun_ahcvzmoyaycdoftf.tif	1276275.564875	1276275.823474	1276276.513570	7.674151e-01	17	none	NaN	NaN
121	8	1	66	kitchen	sun_aapllqyqlykszopd.tif	1276287.409941	1276287.668523	1276288.350391	6.756589e-01	56	none	NaN	NaN
121	8	2	91	kitchen	sun_ahljzhgcdpomplvg.tif	1276289.119958	1276289.378549	1276290.060315	7.590736e-01	81	37	1276290.834308	1
121	8	3	104	kitchen	sun_auticobqsbwgoppi.tif	1276291.605756	1276291.864347	1276292.546155	8.508297e-01	94	none	NaN	NaN
121	8	4	109	kitchen	sun_aypmqwcualkenuoe.tif	1276293.315780	1276293.574367	1276294.256233	7.757565e-01	99	none	NaN	NaN
121	8	5	81	kitchen	sun_aehawpgmrlhlvcow.tif	1276295.025806	1276295.284394	1276295.966099	7.090248e-01	71	37	1276297.178368	1
121	8	6	101	kitchen	sun_aqeaevwwwjoqhzvl.tif	1276297.953706	1276298.212291	1276298.894194	7.257077e-01	91	none	NaN	NaN
121	8	7	85	kitchen	sun_afuyedyxivkhecmu.tif	1276299.663725	1276299.922321	1276300.604105	8.258053e-01	75	none	NaN	NaN
121	8	8	83	kitchen	sun_aeqdocilnnpuvuhx.tif	1276301.373757	1276301.632348	1276302.314073	6.923418e-01	73	none	NaN	NaN
121	8	9	80	kitchen	sun_aegoxogugdkwpmpj.tif	1276303.083780	1276303.342374	1276304.024246	8.091224e-01	70	none	NaN	NaN
121	8	10	86	kitchen	sun_aggjlwcdjsjcaemh.tif	1276304.793807	1276305.052394	1276305.734150	6.673174e-01	76	39	1276317.658442	1
121	8	11	65	kitchen	sun_aamedkxepzlwuxes.tif	1276318.432304	1276318.690897	1276319.372721	7.006833e-01	55	none	NaN	NaN
121	8	12	98	kitchen	sun_akchetnepxlcxhsu.tif	1276320.142331	1276320.400925	1276321.082594	7.006833e-01	88	none	NaN	NaN
121	8	13	77	kitchen	sun_acxkpeoqbwcxfvip.tif	1276321.852359	1276322.110949	1276322.792764	8.007809e-01	67	none	NaN	NaN
121	8	14	96	kitchen	sun_ajcbwwvdlsvjyzje.tif	1276323.562382	1276323.820972	1276324.502738	8.258053e-01	86	none	NaN	NaN
121	8	15	84	kitchen	sun_aexklacwqwezaorf.tif	1276325.272405	1276325.530994	1276326.212832	7.257077e-01	74	39	1276327.594184	1
121	8	16	79	kitchen	sun_admlmbcdswaszruo.tif	1276328.367140	1276328.625727	1276329.307497	7.507321e-01	69	none	NaN	NaN
121	8	17	89	kitchen	sun_agzzivivdpnawacl.tif	1276330.077164	1276330.335756	1276331.017438	8.424883e-01	79	37	1276331.874317	1
121	8	18	92	kitchen	sun_ahpczsiumwwocjkv.tif	1276332.646375	1276332.904962	1276333.586636	8.424883e-01	82	none	NaN	NaN
121	8	19	93	kitchen	sun_ahspylgoovwmwvgk.tif	1276334.356397	1276334.614985	1276335.296788	7.757565e-01	83	39	1276336.330338	1
121	8	20	87	kitchen	sun_agorklincwxrdtga.tif	1276337.100780	1276337.359371	1276338.041156	7.840980e-01	77	37	1276338.794118	1
121	8	21	68	kitchen	sun_aaxxjlsuzvqlgylf.tif	1276339.569890	1276339.828481	1276340.510270	6.840004e-01	58	none	NaN	NaN
121	8	22	76	kitchen	sun_acwjdupvyjsugpay.tif	1276341.271574	1276341.530166	1276342.212040	6.589760e-01	66	none	NaN	NaN
121	8	23	67	kitchen	sun_aarfiyshqohlwkmo.tif	1276342.981599	1276343.240190	1276343.921892	6.589760e-01	57	none	NaN	NaN
121	8	24	97	kitchen	sun_ajkqhtgcbgpcwrwn.tif	1276344.691626	1276344.950219	1276345.631935	7.507321e-01	87	none	NaN	NaN
121	8	25	110	kitchen	sun_azmutvzbxypaceni.tif	1276346.401657	1276346.660237	1276347.342076	7.173662e-01	100	none	NaN	NaN
121	8	26	105	kitchen	sun_avszsnwsbuqfgzbn.tif	1276348.111682	1276348.370271	1276349.052088	7.840980e-01	95	none	NaN	NaN
121	8	27	70	kitchen	sun_abdxkyyxwfskuaqb.tif	1276349.821703	1276350.080295	1276350.761976	8.508297e-01	60	none	NaN	NaN
121	8	28	69	kitchen	sun_abdenxonkemggwsq.tif	1276351.531731	1276351.790316	1276352.472029	7.507321e-01	59	none	NaN	NaN
121	8	29	64	kitchen	sun_aadbddgrdsjugojn.tif	1276353.241757	1276353.500345	1276354.182092	8.424883e-01	54	none	NaN	NaN
121	8	30	72	kitchen	sun_abpwyqmlzafvklqo.tif	1276354.951783	1276355.210368	1276355.892176	7.674151e-01	62	none	NaN	NaN
121	8	31	71	kitchen	sun_abftihopvusyfakt.tif	1276356.661805	1276356.920394	1276357.602207	7.590736e-01	61	none	NaN	NaN
121	8	32	108	kitchen	sun_aymvwlarqodbwuoc.tif	1276358.371833	1276358.630419	1276359.312299	8.341468e-01	98	none	NaN	NaN
121	8	33	102	kitchen	sun_auaiucuqpdausiva.tif	1276360.081859	1276360.340449	1276361.022237	7.340492e-01	92	none	NaN	NaN
121	8	34	75	kitchen	sun_acgtpgfybqjmzeyw.tif	1276361.791887	1276362.050476	1276362.732170	7.924395e-01	65	none	NaN	NaN
121	8	35	100	kitchen	sun_amjjdeyrggfqgmom.tif	1276363.501907	1276363.760498	1276364.442390	8.258053e-01	90	none	NaN	NaN
121	8	36	74	kitchen	sun_acfmftudsenhrfhy.tif	1276365.211935	1276365.470526	1276366.152367	7.674151e-01	64	none	NaN	NaN
121	8	37	73	kitchen	sun_abrcnpqqhmjwekyf.tif	1276366.921964	1276367.180550	1276367.862415	8.007809e-01	63	none	NaN	NaN
121	8	38	94	kitchen	sun_ahywdevtimnqcsln.tif	1276368.631986	1276368.890578	1276369.572462	8.174639e-01	84	none	NaN	NaN
121	8	39	106	kitchen	sun_awcpdzzznmweyyhv.tif	1276370.342010	1276370.600601	1276371.282374	6.923418e-01	96	none	NaN	NaN
121	8	40	103	kitchen	sun_aunzlwrbjumxhwdj.tif	1276372.052039	1276372.310627	1276372.992498	7.173662e-01	93	none	NaN	NaN
121	8	41	99	kitchen	sun_akcjzhbbjlbogpdi.tif	1276373.762068	1276374.020653	1276374.702414	7.423907e-01	89	none	NaN	NaN
121	8	42	63	kitchen	labelme_rykdqxenmhulbdn.tif	1276375.472090	1276375.730679	1276376.412370	8.258053e-01	53	none	NaN	NaN
121	8	43	61	kitchen	labelme_brsyyvweiuaazfr.tif	1276377.182116	1276377.440705	1276378.122467	7.507321e-01	51	none	NaN	NaN
121	8	44	88	kitchen	sun_agubuxuukhzyzpdp.tif	1276378.892139	1276379.150732	1276379.832425	7.590736e-01	78	none	NaN	NaN
121	8	45	95	kitchen	sun_aixorpehvfykdynp.tif	1276380.602169	1276380.860756	1276381.542429	7.090248e-01	85	none	NaN	NaN
121	8	46	62	kitchen	labelme_kxvouciolcpqplr.tif	1276382.312193	1276382.570786	1276383.252607	7.840980e-01	52	none	NaN	NaN
121	8	47	78	kitchen	sun_adgqasybjyktddhj.tif	1276384.022220	1276384.280810	1276384.962707	8.424883e-01	68	none	NaN	NaN
121	8	48	82	kitchen	sun_aenotlpyftoioydp.tif	1276385.732243	1276385.990838	1276386.672550	6.756589e-01	72	37	1276388.394210	1
121	8	49	90	kitchen	sun_ahdycvpopffkzzsu.tif	1276389.168980	1276389.427574	1276390.109352	7.423907e-01	80	none	NaN	NaN
121	8	50	107	kitchen	sun_axyyrmzcupyhlivc.tif	1276390.879004	1276391.137591	1276391.819477	6.840004e-01	97	none	NaN	NaN
121	8	51	109	kitchen	sun_aypmqwcualkenuoe.tif	1276392.589031	1276392.847619	1276393.529498	7.757565e-01	99	none	NaN	NaN
121	8	52	75	kitchen	sun_acgtpgfybqjmzeyw.tif	1276394.299056	1276394.557667	1276395.239513	7.173662e-01	65	none	NaN	NaN
121	8	53	76	kitchen	sun_acwjdupvyjsugpay.tif	1276396.009078	1276396.267672	1276396.949376	6.756589e-01	66	none	NaN	NaN
121	8	54	66	kitchen	sun_aapllqyqlykszopd.tif	1276397.719107	1276397.977695	1276398.659491	6.506345e-01	56	none	NaN	NaN
121	8	55	107	kitchen	sun_axyyrmzcupyhlivc.tif	1276399.429138	1276399.687725	1276400.369573	7.006833e-01	97	37	1276401.041937	1
121	8	56	64	kitchen	sun_aadbddgrdsjugojn.tif	1276401.814832	1276402.073415	1276402.755133	8.258053e-01	54	37	1276403.418102	1
121	8	57	101	kitchen	sun_aqeaevwwwjoqhzvl.tif	1276404.192181	1276404.450768	1276405.132656	6.923418e-01	91	none	NaN	NaN
121	8	58	79	kitchen	sun_admlmbcdswaszruo.tif	1276405.902208	1276406.160798	1276406.842508	7.257077e-01	69	none	NaN	NaN
121	8	59	61	kitchen	labelme_brsyyvweiuaazfr.tif	1276407.612231	1276407.870817	1276408.552515	7.590736e-01	51	none	NaN	NaN
121	8	60	92	kitchen	sun_ahpczsiumwwocjkv.tif	1276409.322257	1276409.580846	1276410.262682	7.590736e-01	82	none	NaN	NaN
121	8	61	63	kitchen	labelme_rykdqxenmhulbdn.tif	1276411.032282	1276411.290875	1276411.972640	7.340492e-01	53	none	NaN	NaN
121	8	62	93	kitchen	sun_ahspylgoovwmwvgk.tif	1276412.742312	1276413.000898	1276413.682698	7.257077e-01	83	none	NaN	NaN
121	8	63	106	kitchen	sun_awcpdzzznmweyyhv.tif	1276414.452334	1276414.710921	1276415.392718	6.923418e-01	96	none	NaN	NaN
121	8	64	83	kitchen	sun_aeqdocilnnpuvuhx.tif	1276416.162361	1276416.420952	1276417.102714	6.840004e-01	73	none	NaN	NaN
121	8	65	70	kitchen	sun_abdxkyyxwfskuaqb.tif	1276417.872388	1276418.130969	1276418.812684	7.006833e-01	60	none	NaN	NaN
121	8	66	84	kitchen	sun_aexklacwqwezaorf.tif	1276419.582415	1276419.841001	1276420.522793	7.757565e-01	74	none	NaN	NaN
121	8	67	78	kitchen	sun_adgqasybjyktddhj.tif	1276421.292439	1276421.551027	1276422.232718	7.924395e-01	68	none	NaN	NaN
121	8	68	77	kitchen	sun_acxkpeoqbwcxfvip.tif	1276423.002465	1276423.261054	1276423.942806	7.840980e-01	67	none	NaN	NaN
121	8	69	74	kitchen	sun_acfmftudsenhrfhy.tif	1276424.712490	1276424.971085	1276425.652769	8.091224e-01	64	none	NaN	NaN
121	8	70	94	kitchen	sun_ahywdevtimnqcsln.tif	1276426.422516	1276426.681104	1276427.362848	7.090248e-01	84	39	1276428.874090	1
121	8	71	95	kitchen	sun_aixorpehvfykdynp.tif	1276429.650713	1276429.909302	1276430.591017	6.673174e-01	85	39	1276431.874216	1
121	8	72	73	kitchen	sun_abrcnpqqhmjwekyf.tif	1276432.645340	1276432.903928	1276433.585604	8.007809e-01	63	37	1276434.506205	1
121	8	73	88	kitchen	sun_agubuxuukhzyzpdp.tif	1276435.281283	1276435.539872	1276436.221587	8.174639e-01	78	none	NaN	NaN
121	8	74	98	kitchen	sun_akchetnepxlcxhsu.tif	1276436.991310	1276437.249898	1276437.931581	8.007809e-01	88	none	NaN	NaN
121	8	75	80	kitchen	sun_aegoxogugdkwpmpj.tif	1276438.701332	1276438.959922	1276439.641665	6.673174e-01	70	39	1276440.850259	1
121	8	76	65	kitchen	sun_aamedkxepzlwuxes.tif	1276441.620891	1276441.879484	1276442.561322	7.674151e-01	55	none	NaN	NaN
121	8	77	103	kitchen	sun_aunzlwrbjumxhwdj.tif	1276443.330915	1276443.589505	1276444.271266	7.423907e-01	93	none	NaN	NaN
121	8	78	86	kitchen	sun_aggjlwcdjsjcaemh.tif	1276445.040943	1276445.299530	1276445.981207	8.091224e-01	76	none	NaN	NaN
121	8	79	71	kitchen	sun_abftihopvusyfakt.tif	1276446.742624	1276447.001219	1276447.682885	7.423907e-01	61	none	NaN	NaN
121	8	80	81	kitchen	sun_aehawpgmrlhlvcow.tif	1276448.444312	1276448.702900	1276449.384705	8.341468e-01	71	none	NaN	NaN
121	8	81	96	kitchen	sun_ajcbwwvdlsvjyzje.tif	1276450.154337	1276450.412923	1276451.094680	6.589760e-01	86	none	NaN	NaN
121	8	82	102	kitchen	sun_auaiucuqpdausiva.tif	1276451.864364	1276452.122951	1276452.804779	6.923418e-01	92	none	NaN	NaN
121	8	83	62	kitchen	labelme_kxvouciolcpqplr.tif	1276453.574386	1276453.832972	1276454.514708	7.340492e-01	52	none	NaN	NaN
121	8	84	108	kitchen	sun_aymvwlarqodbwuoc.tif	1276455.284414	1276455.543003	1276456.224753	6.589760e-01	98	none	NaN	NaN
121	8	85	72	kitchen	sun_abpwyqmlzafvklqo.tif	1276456.994440	1276457.253024	1276457.934925	8.174639e-01	62	none	NaN	NaN
121	8	86	87	kitchen	sun_agorklincwxrdtga.tif	1276458.704463	1276458.963054	1276459.644764	7.340492e-01	77	none	NaN	NaN
121	8	87	90	kitchen	sun_ahdycvpopffkzzsu.tif	1276460.414491	1276460.673075	1276461.354811	7.924395e-01	80	none	NaN	NaN
121	8	88	82	kitchen	sun_aenotlpyftoioydp.tif	1276462.124517	1276462.383106	1276463.064906	6.840004e-01	72	none	NaN	NaN
121	8	89	100	kitchen	sun_amjjdeyrggfqgmom.tif	1276463.834539	1276464.093131	1276464.774947	7.173662e-01	90	39	1276466.162148	1
121	8	90	67	kitchen	sun_aarfiyshqohlwkmo.tif	1276466.937612	1276467.196202	1276467.878076	7.090248e-01	57	none	NaN	NaN
121	8	91	104	kitchen	sun_auticobqsbwgoppi.tif	1276468.647638	1276468.906227	1276469.588080	8.091224e-01	94	none	NaN	NaN
121	8	92	110	kitchen	sun_azmutvzbxypaceni.tif	1276470.357659	1276470.616252	1276471.298043	7.674151e-01	100	none	NaN	NaN
121	8	93	105	kitchen	sun_avszsnwsbuqfgzbn.tif	1276472.067690	1276472.326279	1276473.008016	8.174639e-01	95	none	NaN	NaN
121	8	94	97	kitchen	sun_ajkqhtgcbgpcwrwn.tif	1276473.777719	1276474.036305	1276474.718011	8.341468e-01	87	none	NaN	NaN
121	8	95	85	kitchen	sun_afuyedyxivkhecmu.tif	1276475.487740	1276475.746332	1276476.428118	8.341468e-01	75	none	NaN	NaN
121	8	96	89	kitchen	sun_agzzivivdpnawacl.tif	1276477.197763	1276477.456358	1276478.138169	7.924395e-01	79	none	NaN	NaN
121	8	97	91	kitchen	sun_ahljzhgcdpomplvg.tif	1276478.907794	1276479.166380	1276479.848266	6.673174e-01	81	none	NaN	NaN
121	8	98	99	kitchen	sun_akcjzhbbjlbogpdi.tif	1276480.617817	1276480.876403	1276481.558219	6.506345e-01	89	none	NaN	NaN
121	8	99	68	kitchen	sun_aaxxjlsuzvqlgylf.tif	1276482.327851	1276482.586433	1276483.268241	6.756589e-01	58	none	NaN	NaN
121	8	100	69	kitchen	sun_abdenxonkemggwsq.tif	1276484.037871	1276484.296454	1276484.978244	6.506345e-01	59	none	NaN	NaN
121	9	1	11	bathroom	labelme_sfxiulhjbhlyiyt.tif	1276492.821567	1276493.080152	1276493.728506	7.757565e-01	1	none	NaN	NaN
121	9	2	24	bathroom	sun_agrwbmhcpmfuwmsg.tif	1276494.498227	1276494.756811	1276495.405228	8.508297e-01	14	none	NaN	NaN
121	9	3	60	bathroom	sun_azqyogdvyhahyram.tif	1276496.174878	1276496.433469	1276497.081851	7.006833e-01	50	none	NaN	NaN
121	9	4	19	bathroom	sun_aclfzgynxzxlbepz.tif	1276497.851540	1276498.110136	1276498.758521	7.924395e-01	9	none	NaN	NaN
121	9	5	14	bathroom	sun_abapwbhyhkfixyex.tif	1276499.528198	1276499.786787	1276500.435270	8.174639e-01	4	none	NaN	NaN
121	9	6	15	bathroom	sun_abjtwfukuwddzted.tif	1276501.204862	1276501.463448	1276502.111768	6.923418e-01	5	39	1276503.833860	1
121	9	7	21	bathroom	sun_aggnnqpdorgxpvce.tif	1276504.608225	1276504.866819	1276505.515210	7.507321e-01	11	none	NaN	NaN
121	9	8	38	bathroom	sun_anhioqovhscjqqwb.tif	1276506.284884	1276506.543483	1276507.191780	6.506345e-01	28	none	NaN	NaN
121	9	9	44	bathroom	sun_apkruvsevgegsdwp.tif	1276507.953206	1276508.211794	1276508.860132	6.589760e-01	34	none	NaN	NaN
121	9	10	56	bathroom	sun_awnqiikzaispgmwo.tif	1276509.629858	1276509.888448	1276510.536896	6.589760e-01	46	none	NaN	NaN
121	9	11	16	bathroom	sun_acduarbnmmoglmiv.tif	1276511.306523	1276511.565112	1276512.213537	8.258053e-01	6	none	NaN	NaN
121	9	12	45	bathroom	sun_apkxzenqapsujocq.tif	1276512.983178	1276513.241774	1276513.890260	8.007809e-01	35	none	NaN	NaN
121	9	13	18	bathroom	sun_acgyywnybuveqsro.tif	1276514.659842	1276514.918430	1276515.566768	8.424883e-01	8	none	NaN	NaN
121	9	14	20	bathroom	sun_afcoljnjfoxjtgja.tif	1276516.328162	1276516.586747	1276517.235067	7.757565e-01	10	37	1276518.786083	1
121	9	15	49	bathroom	sun_asfwthctfqerjvxr.tif	1276519.556354	1276519.814946	1276520.463351	8.091224e-01	39	none	NaN	NaN
121	9	16	31	bathroom	sun_akiytfaagpdsphgz.tif	1276521.233021	1276521.491605	1276522.140076	7.590736e-01	21	none	NaN	NaN
121	9	17	17	bathroom	sun_acegryoqftbzowsg.tif	1276522.909677	1276523.168265	1276523.816615	7.423907e-01	7	none	NaN	NaN
121	9	18	54	bathroom	sun_auzqhkafidnkrwmo.tif	1276524.586332	1276524.844924	1276525.493257	8.508297e-01	44	none	NaN	NaN
121	9	19	50	bathroom	sun_aspsyogrekjtfozg.tif	1276526.262994	1276526.521583	1276527.170121	8.174639e-01	40	none	NaN	NaN
121	9	20	34	bathroom	sun_alkosphxlxwjwgjd.tif	1276527.939651	1276528.198243	1276528.846627	7.340492e-01	24	37	1276529.618205	1
121	9	21	53	bathroom	sun_ausgutylgojavyoq.tif	1276530.392080	1276530.650669	1276531.299018	6.840004e-01	43	none	NaN	NaN
121	9	22	13	bathroom	sun_aavhrsfjbserjtht.tif	1276532.068739	1276532.327329	1276532.975801	6.673174e-01	3	none	NaN	NaN
121	9	23	52	bathroom	sun_aunuadmjocsddsrl.tif	1276533.745397	1276534.003986	1276534.652431	6.506345e-01	42	none	NaN	NaN
121	9	24	12	bathroom	sun_aapitsgbtktqubfy.tif	1276535.422058	1276535.680652	1276536.329028	7.590736e-01	2	none	NaN	NaN
121	9	25	39	bathroom	sun_anryaplzeujmzfkd.tif	1276537.098715	1276537.357310	1276538.005800	7.340492e-01	29	none	NaN	NaN
121	9	26	29	bathroom	sun_ahqjwnzgolcaoidx.tif	1276538.775378	1276539.033966	1276539.682375	7.090248e-01	19	none	NaN	NaN
121	9	27	26	bathroom	sun_ahaulkltgpkeeemi.tif	1276540.452036	1276540.710626	1276541.359004	6.673174e-01	16	37	1276542.130079	1
121	9	28	51	bathroom	sun_atstyziqcmkahyxk.tif	1276542.904464	1276543.163054	1276543.811509	7.090248e-01	41	none	NaN	NaN
