subject	block	trial	texture	category	image	trialOnset	itiOnset	trialEnd	iti	EEGtrigger	responseKey	responseTime	accuracy
112	1	1	13	bathroom	sun_aavhrsfjbserjtht.tif	1191771.188564	1191771.447154	1191772.187374	7.507294e-01	3	none	NaN	NaN
112	1	2	49	bathroom	sun_asfwthctfqerjvxr.tif	1191772.956984	1191773.215572	1191773.955755	8.424852e-01	39	none	NaN	NaN
112	1	3	25	bathroom	sun_agyqfjcfkdcydepw.tif	1191774.725401	1191774.983996	1191775.724158	6.589736e-01	15	37	1191778.577754	0
112	1	4	38	bathroom	sun_anhioqovhscjqqwb.tif	1191779.354987	1191779.613577	1191780.353752	7.840952e-01	28	none	NaN	NaN
112	1	5	37	bathroom	sun_amzlamotzwfkwjco.tif	1191781.131771	1191781.390335	1191782.130572	7.173637e-01	27	none	NaN	NaN
112	1	6	16	bathroom	sun_acduarbnmmoglmiv.tif	1191782.900166	1191783.158756	1191783.898962	6.923394e-01	6	none	NaN	NaN
112	1	7	41	bathroom	sun_aoybiabnpadelefl.tif	1191784.668588	1191784.927175	1191785.667358	6.923394e-01	31	39	1191786.537606	1
112	1	8	55	bathroom	sun_avhrdrntsqrjzccq.tif	1191787.312874	1191787.571463	1191788.311623	6.923394e-01	45	none	NaN	NaN
112	1	9	60	bathroom	sun_azqyogdvyhahyram.tif	1191789.081288	1191789.339878	1191790.080015	7.423880e-01	50	37	1191791.377625	1
112	1	10	29	bathroom	sun_ahqjwnzgolcaoidx.tif	1191792.150999	1191792.409591	1191793.149850	7.340465e-01	19	none	NaN	NaN
112	1	11	15	bathroom	sun_abjtwfukuwddzted.tif	1191793.919417	1191794.178003	1191794.918275	8.341438e-01	5	37	1191795.873654	1
112	1	12	39	bathroom	sun_anryaplzeujmzfkd.tif	1191796.647119	1191796.905714	1191797.645971	6.756565e-01	29	none	NaN	NaN
112	1	13	17	bathroom	sun_acegryoqftbzowsg.tif	1191798.415539	1191798.674126	1191799.414392	8.091195e-01	7	none	NaN	NaN
112	1	14	30	bathroom	sun_ajlawzvmubibwbpy.tif	1191800.183957	1191800.442548	1191801.182640	8.174609e-01	20	none	NaN	NaN
112	1	15	23	bathroom	sun_aghyqhbptboemmoq.tif	1191801.952373	1191802.210963	1191802.951105	7.840952e-01	13	none	NaN	NaN
112	1	16	53	bathroom	sun_ausgutylgojavyoq.tif	1191803.720796	1191803.979381	1191804.719604	7.507294e-01	43	none	NaN	NaN
112	1	17	59	bathroom	sun_axyrejkiiaqiurjk.tif	1191805.489214	1191805.747804	1191806.487966	7.423880e-01	49	none	NaN	NaN
112	1	18	58	bathroom	sun_axxbkopsgyouuebh.tif	1191807.257629	1191807.516223	1191808.256481	7.340465e-01	48	none	NaN	NaN
112	1	19	14	bathroom	sun_abapwbhyhkfixyex.tif	1191809.026051	1191809.284642	1191810.024733	7.090222e-01	4	none	NaN	NaN
112	1	20	33	bathroom	sun_aljolscmmzydegqp.tif	1191810.794467	1191811.053062	1191811.793122	6.923394e-01	23	none	NaN	NaN
112	1	21	46	bathroom	sun_apmqjbnwghzuhhzh.tif	1191812.562890	1191812.821480	1191813.561656	7.340465e-01	36	37	1191814.697803	0
112	1	22	18	bathroom	sun_acgyywnybuveqsro.tif	1191815.474103	1191815.732693	1191816.472954	6.756565e-01	8	none	NaN	NaN
112	1	23	19	bathroom	sun_aclfzgynxzxlbepz.tif	1191817.242521	1191817.501111	1191818.241176	7.757537e-01	9	none	NaN	NaN
112	1	24	11	bathroom	labelme_sfxiulhjbhlyiyt.tif	1191819.010944	1191819.269535	1191820.009610	6.673150e-01	1	39	1191820.889778	1
112	1	25	27	bathroom	sun_ahcvzmoyaycdoftf.tif	1191821.663570	1191821.922156	1191822.662411	8.258024e-01	17	none	NaN	NaN
112	1	26	21	bathroom	sun_aggnnqpdorgxpvce.tif	1191823.431990	1191823.690578	1191824.430640	7.590709e-01	11	none	NaN	NaN
112	1	27	42	bathroom	sun_apeeialkgkuxddgh.tif	1191825.200408	1191825.458995	1191826.199056	7.590709e-01	32	none	NaN	NaN
112	1	28	56	bathroom	sun_awnqiikzaispgmwo.tif	1191826.968822	1191827.227419	1191827.967476	8.174609e-01	46	none	NaN	NaN
112	1	29	44	bathroom	sun_apkruvsevgegsdwp.tif	1191828.737241	1191828.995834	1191829.736036	7.423880e-01	34	none	NaN	NaN
112	1	30	20	bathroom	sun_afcoljnjfoxjtgja.tif	1191830.505661	1191830.764249	1191831.504368	7.173637e-01	10	none	NaN	NaN
112	1	31	28	bathroom	sun_ahijqszoswveeyji.tif	1191832.274078	1191832.532669	1191833.272750	8.424852e-01	18	none	NaN	NaN
112	1	32	26	bathroom	sun_ahaulkltgpkeeemi.tif	1191834.042502	1191834.301088	1191835.041175	7.674123e-01	16	none	NaN	NaN
112	1	33	22	bathroom	sun_agguqiubmwhqqunb.tif	1191835.810919	1191836.069506	1191836.809637	6.923394e-01	12	none	NaN	NaN
112	1	34	47	bathroom	sun_apynckhmoftszqoq.tif	1191837.579337	1191837.837931	1191838.578147	7.590709e-01	37	none	NaN	NaN
112	1	35	45	bathroom	sun_apkxzenqapsujocq.tif	1191839.347757	1191839.606338	1191840.346599	8.174609e-01	35	none	NaN	NaN
112	1	36	34	bathroom	sun_alkosphxlxwjwgjd.tif	1191841.116173	1191841.374765	1191842.114857	8.341438e-01	24	none	NaN	NaN
112	1	37	12	bathroom	sun_aapitsgbtktqubfy.tif	1191842.884596	1191843.143182	1191843.883372	8.091195e-01	2	none	NaN	NaN
112	1	38	52	bathroom	sun_aunuadmjocsddsrl.tif	1191844.653014	1191844.911599	1191845.651875	7.090222e-01	42	none	NaN	NaN
112	1	39	50	bathroom	sun_aspsyogrekjtfozg.tif	1191846.421428	1191846.680014	1191847.420169	7.924366e-01	40	none	NaN	NaN
112	1	40	54	bathroom	sun_auzqhkafidnkrwmo.tif	1191848.189844	1191848.448441	1191849.188523	6.506322e-01	44	none	NaN	NaN
112	1	41	31	bathroom	sun_akiytfaagpdsphgz.tif	1191849.958267	1191850.216858	1191850.956996	6.589736e-01	21	39	1191852.625840	1
112	1	42	48	bathroom	sun_aqrpegblszgcoujh.tif	1191853.403343	1191853.661937	1191854.402045	8.091195e-01	38	none	NaN	NaN
112	1	43	35	bathroom	sun_alotolagknyrgtsk.tif	1191855.171766	1191855.430353	1191856.170519	8.007780e-01	25	none	NaN	NaN
112	1	44	24	bathroom	sun_agrwbmhcpmfuwmsg.tif	1191856.940184	1191857.198770	1191857.938944	7.257051e-01	14	none	NaN	NaN
112	1	45	40	bathroom	sun_aofnryafpsjimzsb.tif	1191858.708601	1191858.967192	1191859.707415	7.840952e-01	30	none	NaN	NaN
112	1	46	36	bathroom	sun_ambriybtogmepttm.tif	1191860.477020	1191860.735611	1191861.475765	7.757537e-01	26	none	NaN	NaN
112	1	47	57	bathroom	sun_axldvoqbuvuggfmq.tif	1191862.245439	1191862.504031	1191863.244162	8.258024e-01	47	none	NaN	NaN
112	1	48	43	bathroom	sun_apjevzvycyhuqghb.tif	1191864.013855	1191864.272448	1191865.012518	6.506322e-01	33	none	NaN	NaN
112	1	49	32	bathroom	sun_aleqenyvunhactkl.tif	1191865.782274	1191866.040865	1191866.781014	7.006808e-01	22	none	NaN	NaN
112	1	50	51	bathroom	sun_atstyziqcmkahyxk.tif	1191867.550697	1191867.809281	1191868.549527	8.007780e-01	41	none	NaN	NaN
112	1	51	59	bathroom	sun_axyrejkiiaqiurjk.tif	1191869.319113	1191869.577706	1191870.317890	7.006808e-01	49	none	NaN	NaN
112	1	52	11	bathroom	labelme_sfxiulhjbhlyiyt.tif	1191871.087530	1191871.346117	1191872.086267	7.340465e-01	1	none	NaN	NaN
112	1	53	25	bathroom	sun_agyqfjcfkdcydepw.tif	1191872.855947	1191873.114538	1191873.854775	7.507294e-01	15	none	NaN	NaN
112	1	54	16	bathroom	sun_acduarbnmmoglmiv.tif	1191874.624365	1191874.882956	1191875.623027	7.173637e-01	6	none	NaN	NaN
112	1	55	21	bathroom	sun_aggnnqpdorgxpvce.tif	1191876.392783	1191876.651371	1191877.391625	7.590709e-01	11	none	NaN	NaN
112	1	56	51	bathroom	sun_atstyziqcmkahyxk.tif	1191878.161208	1191878.419799	1191879.159983	7.924366e-01	41	none	NaN	NaN
112	1	57	32	bathroom	sun_aleqenyvunhactkl.tif	1191879.929626	1191880.188210	1191880.928335	7.924366e-01	22	none	NaN	NaN
112	1	58	33	bathroom	sun_aljolscmmzydegqp.tif	1191881.698044	1191881.956628	1191882.696847	7.674123e-01	23	none	NaN	NaN
112	1	59	18	bathroom	sun_acgyywnybuveqsro.tif	1191883.466458	1191883.725052	1191884.465240	7.090222e-01	8	none	NaN	NaN
112	1	60	36	bathroom	sun_ambriybtogmepttm.tif	1191885.234876	1191885.493469	1191886.233608	7.840952e-01	26	none	NaN	NaN
112	1	61	13	bathroom	sun_aavhrsfjbserjtht.tif	1191887.003237	1191887.261886	1191888.001896	8.508267e-01	3	none	NaN	NaN
112	1	62	56	bathroom	sun_awnqiikzaispgmwo.tif	1191888.771715	1191889.030307	1191889.770465	7.757537e-01	46	37	1191891.441773	0
112	1	63	14	bathroom	sun_abapwbhyhkfixyex.tif	1191892.216796	1191892.475387	1191893.215575	6.589736e-01	4	none	NaN	NaN
112	1	64	45	bathroom	sun_apkxzenqapsujocq.tif	1191893.985214	1191894.243805	1191894.983921	8.091195e-01	35	none	NaN	NaN
112	1	65	38	bathroom	sun_anhioqovhscjqqwb.tif	1191895.745289	1191896.003877	1191896.744051	8.258024e-01	28	37	1191897.745667	1
112	1	66	44	bathroom	sun_apkruvsevgegsdwp.tif	1191898.523032	1191898.781630	1191899.521742	8.007780e-01	34	37	1191900.729699	1
112	1	67	35	bathroom	sun_alotolagknyrgtsk.tif	1191901.500989	1191901.759585	1191902.499702	6.673150e-01	25	none	NaN	NaN
112	1	68	55	bathroom	sun_avhrdrntsqrjzccq.tif	1191903.269437	1191903.527995	1191904.268254	6.756565e-01	45	39	1191905.793581	1
112	1	69	22	bathroom	sun_agguqiubmwhqqunb.tif	1191906.564343	1191906.822926	1191907.563050	6.839979e-01	12	none	NaN	NaN
112	1	70	24	bathroom	sun_agrwbmhcpmfuwmsg.tif	1191908.332759	1191908.591349	1191909.331636	7.423880e-01	14	none	NaN	NaN
112	1	71	47	bathroom	sun_apynckhmoftszqoq.tif	1191910.101179	1191910.359765	1191911.099838	8.341438e-01	37	none	NaN	NaN
112	1	72	53	bathroom	sun_ausgutylgojavyoq.tif	1191911.869594	1191912.128185	1191912.868253	7.590709e-01	43	none	NaN	NaN
112	1	73	15	bathroom	sun_abjtwfukuwddzted.tif	1191913.638016	1191913.896603	1191914.636735	8.007780e-01	5	none	NaN	NaN
112	1	74	28	bathroom	sun_ahijqszoswveeyji.tif	1191915.406435	1191915.665024	1191916.405116	7.257051e-01	18	none	NaN	NaN
112	1	75	26	bathroom	sun_ahaulkltgpkeeemi.tif	1191917.174851	1191917.433443	1191918.173521	8.174609e-01	16	37	1191919.209707	1
112	1	76	58	bathroom	sun_axxbkopsgyouuebh.tif	1191919.985965	1191920.244559	1191920.984793	6.839979e-01	48	none	NaN	NaN
112	1	77	17	bathroom	sun_acegryoqftbzowsg.tif	1191921.754391	1191922.012980	1191922.753149	6.839979e-01	7	37	1191923.561803	1
112	1	78	54	bathroom	sun_auzqhkafidnkrwmo.tif	1191924.340282	1191924.598873	1191925.339126	8.341438e-01	44	none	NaN	NaN
112	1	79	30	bathroom	sun_ajlawzvmubibwbpy.tif	1191926.108698	1191926.367292	1191927.107352	7.173637e-01	20	none	NaN	NaN
112	1	80	19	bathroom	sun_aclfzgynxzxlbepz.tif	1191927.877120	1191928.135706	1191928.875829	8.258024e-01	9	none	NaN	NaN
112	1	81	60	bathroom	sun_azqyogdvyhahyram.tif	1191929.645540	1191929.904125	1191930.644265	7.257051e-01	50	none	NaN	NaN
112	1	82	50	bathroom	sun_aspsyogrekjtfozg.tif	1191931.413959	1191931.672548	1191932.412827	7.757537e-01	40	none	NaN	NaN
112	1	83	42	bathroom	sun_apeeialkgkuxddgh.tif	1191933.182373	1191933.440965	1191934.181138	7.006808e-01	32	none	NaN	NaN
112	1	84	49	bathroom	sun_asfwthctfqerjvxr.tif	1191934.942454	1191935.201042	1191935.941243	7.674123e-01	39	none	NaN	NaN
112	1	85	27	bathroom	sun_ahcvzmoyaycdoftf.tif	1191936.710872	1191936.969463	1191937.709632	7.006808e-01	17	none	NaN	NaN
112	1	86	12	bathroom	sun_aapitsgbtktqubfy.tif	1191938.479290	1191938.737872	1191939.478033	7.257051e-01	2	none	NaN	NaN
112	1	87	23	bathroom	sun_aghyqhbptboemmoq.tif	1191940.247704	1191940.506297	1191941.246557	6.506322e-01	13	39	1191943.009728	1
112	1	88	20	bathroom	sun_afcoljnjfoxjtgja.tif	1191943.784542	1191944.043131	1191944.783198	8.424852e-01	10	none	NaN	NaN
112	1	89	40	bathroom	sun_aofnryafpsjimzsb.tif	1191945.552965	1191945.811507	1191946.551629	6.589736e-01	30	none	NaN	NaN
112	1	90	39	bathroom	sun_anryaplzeujmzfkd.tif	1191947.321381	1191947.579969	1191948.320188	6.839979e-01	29	none	NaN	NaN
112	1	91	43	bathroom	sun_apjevzvycyhuqghb.tif	1191949.089798	1191949.348391	1191950.088665	8.258024e-01	33	none	NaN	NaN
112	1	92	34	bathroom	sun_alkosphxlxwjwgjd.tif	1191950.858215	1191951.116808	1191951.856940	6.673150e-01	24	none	NaN	NaN
112	1	93	41	bathroom	sun_aoybiabnpadelefl.tif	1191952.626633	1191952.885224	1191953.625339	8.424852e-01	31	none	NaN	NaN
112	1	94	46	bathroom	sun_apmqjbnwghzuhhzh.tif	1191954.395053	1191954.653645	1191955.393846	6.756565e-01	36	none	NaN	NaN
112	1	95	57	bathroom	sun_axldvoqbuvuggfmq.tif	1191956.163472	1191956.422058	1191957.162212	8.508267e-01	47	none	NaN	NaN
112	1	96	31	bathroom	sun_akiytfaagpdsphgz.tif	1191957.931890	1191958.190481	1191958.930758	7.507294e-01	21	39	1191960.177635	0
112	1	97	37	bathroom	sun_amzlamotzwfkwjco.tif	1191960.951548	1191961.210138	1191961.950277	7.090222e-01	27	none	NaN	NaN
112	1	98	29	bathroom	sun_ahqjwnzgolcaoidx.tif	1191962.719970	1191962.978554	1191963.718686	7.674123e-01	19	none	NaN	NaN
112	1	99	52	bathroom	sun_aunuadmjocsddsrl.tif	1191964.488386	1191964.746977	1191965.487170	7.924366e-01	42	none	NaN	NaN
112	1	100	48	bathroom	sun_aqrpegblszgcoujh.tif	1191966.256802	1191966.515392	1191967.255460	6.673150e-01	38	none	NaN	NaN
112	2	1	62	kitchen	labelme_kxvouciolcpqplr.tif	1191979.386458	1191979.645067	1191980.335068	8.258024e-01	52	none	NaN	NaN
112	2	2	82	kitchen	sun_aenotlpyftoioydp.tif	1191981.104843	1191981.363434	1191982.053570	7.006808e-01	72	none	NaN	NaN
112	2	3	80	kitchen	sun_aegoxogugdkwpmpj.tif	1191982.823216	1191983.081801	1191983.771918	8.258024e-01	70	none	NaN	NaN
112	2	4	84	kitchen	sun_aexklacwqwezaorf.tif	1191984.541579	1191984.800172	1191985.490249	7.507294e-01	74	none	NaN	NaN
112	2	5	88	kitchen	sun_agubuxuukhzyzpdp.tif	1191986.259951	1191986.518538	1191987.208723	7.423880e-01	78	none	NaN	NaN
112	2	6	85	kitchen	sun_afuyedyxivkhecmu.tif	1191987.978320	1191988.236912	1191988.927131	7.924366e-01	75	37	1191990.689604	1
112	2	7	73	kitchen	sun_abrcnpqqhmjwekyf.tif	1191991.465106	1191991.723693	1191992.413878	7.590709e-01	63	none	NaN	NaN
112	2	8	99	kitchen	sun_akcjzhbbjlbogpdi.tif	1191993.183476	1191993.442067	1191994.132096	7.257051e-01	89	none	NaN	NaN
112	2	9	75	kitchen	sun_acgtpgfybqjmzeyw.tif	1191994.901844	1191995.160434	1191995.850525	7.590709e-01	65	none	NaN	NaN
112	2	10	92	kitchen	sun_ahpczsiumwwocjkv.tif	1191996.620212	1191996.878801	1191997.568941	7.590709e-01	82	none	NaN	NaN
112	2	11	67	kitchen	sun_aarfiyshqohlwkmo.tif	1191998.338583	1191998.597175	1191999.287256	7.507294e-01	57	37	1192000.489713	1
112	2	12	89	kitchen	sun_agzzivivdpnawacl.tif	1192001.266478	1192001.525066	1192002.215153	7.090222e-01	79	none	NaN	NaN
112	2	13	87	kitchen	sun_agorklincwxrdtga.tif	1192002.984852	1192003.243441	1192003.933554	8.341438e-01	77	none	NaN	NaN
112	2	14	70	kitchen	sun_abdxkyyxwfskuaqb.tif	1192004.703217	1192004.961804	1192005.651966	7.006808e-01	60	none	NaN	NaN
112	2	15	69	kitchen	sun_abdenxonkemggwsq.tif	1192006.421586	1192006.680175	1192007.370338	6.506322e-01	59	none	NaN	NaN
112	2	16	66	kitchen	sun_aapllqyqlykszopd.tif	1192008.139957	1192008.398550	1192009.088687	7.340465e-01	56	37	1192010.241809	0
112	2	17	104	kitchen	sun_auticobqsbwgoppi.tif	1192011.017803	1192011.276388	1192011.966491	8.007780e-01	94	none	NaN	NaN
112	2	18	90	kitchen	sun_ahdycvpopffkzzsu.tif	1192012.736172	1192012.994768	1192013.684973	6.839979e-01	80	none	NaN	NaN
112	2	19	96	kitchen	sun_ajcbwwvdlsvjyzje.tif	1192014.454545	1192014.713139	1192015.403263	6.923394e-01	86	none	NaN	NaN
112	2	20	65	kitchen	sun_aamedkxepzlwuxes.tif	1192016.172914	1192016.431501	1192017.121638	7.090222e-01	55	none	NaN	NaN
112	2	21	106	kitchen	sun_awcpdzzznmweyyhv.tif	1192017.891282	1192018.149866	1192018.839899	7.674123e-01	96	none	NaN	NaN
112	2	22	83	kitchen	sun_aeqdocilnnpuvuhx.tif	1192019.609651	1192019.868239	1192020.558275	8.424852e-01	73	none	NaN	NaN
112	2	23	64	kitchen	sun_aadbddgrdsjugojn.tif	1192021.319676	1192021.578269	1192022.268287	7.840952e-01	54	none	NaN	NaN
112	2	24	61	kitchen	labelme_brsyyvweiuaazfr.tif	1192023.038048	1192023.296634	1192023.986679	7.173637e-01	51	none	NaN	NaN
112	2	25	107	kitchen	sun_axyyrmzcupyhlivc.tif	1192024.756417	1192025.015005	1192025.705038	7.340465e-01	97	none	NaN	NaN
112	2	26	91	kitchen	sun_ahljzhgcdpomplvg.tif	1192026.474783	1192026.733376	1192027.423482	6.589736e-01	81	none	NaN	NaN
112	2	27	94	kitchen	sun_ahywdevtimnqcsln.tif	1192028.193155	1192028.451746	1192029.141769	7.507294e-01	84	none	NaN	NaN
112	2	28	78	kitchen	sun_adgqasybjyktddhj.tif	1192029.911519	1192030.170112	1192030.860130	7.257051e-01	68	none	NaN	NaN
112	2	29	102	kitchen	sun_auaiucuqpdausiva.tif	1192031.629892	1192031.888483	1192032.578560	6.923394e-01	92	none	NaN	NaN
112	2	30	95	kitchen	sun_aixorpehvfykdynp.tif	1192033.348261	1192033.606850	1192034.296949	6.673150e-01	85	none	NaN	NaN
112	2	31	81	kitchen	sun_aehawpgmrlhlvcow.tif	1192035.066627	1192035.325218	1192036.015412	7.006808e-01	71	39	1192037.025420	1
112	2	32	74	kitchen	sun_acfmftudsenhrfhy.tif	1192037.802669	1192038.061255	1192038.751344	8.341438e-01	64	37	1192040.897592	1
112	2	33	72	kitchen	sun_abpwyqmlzafvklqo.tif	1192041.673173	1192041.931762	1192042.621894	7.090222e-01	62	none	NaN	NaN
112	2	34	109	kitchen	sun_aypmqwcualkenuoe.tif	1192043.391540	1192043.650132	1192044.340360	7.173637e-01	99	39	1192047.705738	0
112	2	35	63	kitchen	labelme_rykdqxenmhulbdn.tif	1192048.479909	1192048.738505	1192049.428692	7.757537e-01	53	none	NaN	NaN
112	2	36	105	kitchen	sun_avszsnwsbuqfgzbn.tif	1192050.198284	1192050.456873	1192051.146964	7.090222e-01	95	none	NaN	NaN
112	2	37	98	kitchen	sun_akchetnepxlcxhsu.tif	1192051.916650	1192052.175239	1192052.865348	8.091195e-01	88	none	NaN	NaN
112	2	38	86	kitchen	sun_aggjlwcdjsjcaemh.tif	1192053.635021	1192053.893611	1192054.583697	6.673150e-01	76	none	NaN	NaN
112	2	39	68	kitchen	sun_aaxxjlsuzvqlgylf.tif	1192055.353389	1192055.611980	1192056.302175	7.590709e-01	58	none	NaN	NaN
112	2	40	71	kitchen	sun_abftihopvusyfakt.tif	1192057.071759	1192057.330350	1192058.020563	8.424852e-01	61	none	NaN	NaN
112	2	41	93	kitchen	sun_ahspylgoovwmwvgk.tif	1192058.790127	1192059.048715	1192059.738765	7.674123e-01	83	39	1192062.425550	1
112	2	42	100	kitchen	sun_amjjdeyrggfqgmom.tif	1192063.202831	1192063.461420	1192064.151610	8.174609e-01	90	none	NaN	NaN
112	2	43	108	kitchen	sun_aymvwlarqodbwuoc.tif	1192064.921201	1192065.179788	1192065.869802	6.756565e-01	98	none	NaN	NaN
112	2	44	76	kitchen	sun_acwjdupvyjsugpay.tif	1192066.639567	1192066.898155	1192067.588206	7.840952e-01	66	none	NaN	NaN
112	2	45	97	kitchen	sun_ajkqhtgcbgpcwrwn.tif	1192068.357938	1192068.616526	1192069.306689	7.757537e-01	87	none	NaN	NaN
112	2	46	79	kitchen	sun_admlmbcdswaszruo.tif	1192070.076303	1192070.334898	1192071.024952	8.258024e-01	69	none	NaN	NaN
112	2	47	77	kitchen	sun_acxkpeoqbwcxfvip.tif	1192071.794678	1192072.053263	1192072.743435	7.924366e-01	67	none	NaN	NaN
112	2	48	103	kitchen	sun_aunzlwrbjumxhwdj.tif	1192073.513043	1192073.771630	1192074.461700	7.840952e-01	93	none	NaN	NaN
112	2	49	110	kitchen	sun_azmutvzbxypaceni.tif	1192075.231413	1192075.489999	1192076.180052	8.007780e-01	100	none	NaN	NaN
112	2	50	101	kitchen	sun_aqeaevwwwjoqhzvl.tif	1192076.949778	1192077.208377	1192077.898531	7.173637e-01	91	none	NaN	NaN
112	2	51	88	kitchen	sun_agubuxuukhzyzpdp.tif	1192078.668148	1192078.926735	1192079.616846	8.174609e-01	78	none	NaN	NaN
112	2	52	92	kitchen	sun_ahpczsiumwwocjkv.tif	1192080.386514	1192080.645109	1192081.335327	6.923394e-01	82	39	1192084.745665	1
112	2	53	66	kitchen	sun_aapllqyqlykszopd.tif	1192085.516601	1192085.775190	1192086.465330	8.091195e-01	56	none	NaN	NaN
112	2	54	102	kitchen	sun_auaiucuqpdausiva.tif	1192087.234971	1192087.493555	1192088.183678	7.924366e-01	92	37	1192089.257808	1
112	2	55	78	kitchen	sun_adgqasybjyktddhj.tif	1192090.029401	1192090.287990	1192090.978094	7.924366e-01	68	none	NaN	NaN
112	2	56	68	kitchen	sun_aaxxjlsuzvqlgylf.tif	1192091.747774	1192092.006357	1192092.696399	6.756565e-01	58	none	NaN	NaN
112	2	57	62	kitchen	labelme_kxvouciolcpqplr.tif	1192093.466143	1192093.724731	1192094.414917	6.589736e-01	52	none	NaN	NaN
112	2	58	100	kitchen	sun_amjjdeyrggfqgmom.tif	1192095.184508	1192095.443101	1192096.133324	6.923394e-01	90	none	NaN	NaN
112	2	59	74	kitchen	sun_acfmftudsenhrfhy.tif	1192096.902879	1192097.161471	1192097.851493	7.173637e-01	64	none	NaN	NaN
112	2	60	109	kitchen	sun_aypmqwcualkenuoe.tif	1192098.621250	1192098.879839	1192099.569870	8.424852e-01	99	none	NaN	NaN
112	2	61	105	kitchen	sun_avszsnwsbuqfgzbn.tif	1192100.339610	1192100.598203	1192101.288307	7.590709e-01	95	none	NaN	NaN
112	2	62	67	kitchen	sun_aarfiyshqohlwkmo.tif	1192102.057986	1192102.316577	1192103.006807	6.839979e-01	57	none	NaN	NaN
112	2	63	83	kitchen	sun_aeqdocilnnpuvuhx.tif	1192103.776355	1192104.034941	1192104.724968	6.673150e-01	73	none	NaN	NaN
112	2	64	90	kitchen	sun_ahdycvpopffkzzsu.tif	1192105.494724	1192105.753307	1192106.443330	6.756565e-01	80	none	NaN	NaN
112	2	65	75	kitchen	sun_acgtpgfybqjmzeyw.tif	1192107.204746	1192107.463336	1192108.153529	7.757537e-01	65	none	NaN	NaN
112	2	66	101	kitchen	sun_aqeaevwwwjoqhzvl.tif	1192108.923118	1192109.181704	1192109.871907	7.757537e-01	91	none	NaN	NaN
112	2	67	82	kitchen	sun_aenotlpyftoioydp.tif	1192110.641484	1192110.900075	1192111.590099	6.839979e-01	72	39	1192115.457429	1
112	2	68	97	kitchen	sun_ajkqhtgcbgpcwrwn.tif	1192116.230353	1192116.488945	1192117.179052	7.006808e-01	87	none	NaN	NaN
112	2	69	77	kitchen	sun_acxkpeoqbwcxfvip.tif	1192117.948724	1192118.207315	1192118.897529	7.340465e-01	67	none	NaN	NaN
112	2	70	63	kitchen	labelme_rykdqxenmhulbdn.tif	1192119.667092	1192119.925686	1192120.615759	7.423880e-01	53	none	NaN	NaN
112	2	71	87	kitchen	sun_agorklincwxrdtga.tif	1192121.385456	1192121.644073	1192122.334177	8.341438e-01	77	none	NaN	NaN
112	2	72	84	kitchen	sun_aexklacwqwezaorf.tif	1192123.103833	1192123.362419	1192124.052644	7.674123e-01	74	none	NaN	NaN
112	2	73	94	kitchen	sun_ahywdevtimnqcsln.tif	1192124.822195	1192125.080793	1192125.770865	6.923394e-01	84	37	1192126.633775	1
112	2	74	65	kitchen	sun_aamedkxepzlwuxes.tif	1192127.408093	1192127.666686	1192128.356823	8.508267e-01	55	none	NaN	NaN
112	2	75	96	kitchen	sun_ajcbwwvdlsvjyzje.tif	1192129.126461	1192129.385054	1192130.075126	7.507294e-01	86	39	1192130.881693	1
112	2	76	106	kitchen	sun_awcpdzzznmweyyhv.tif	1192131.653964	1192131.912556	1192132.602703	8.007780e-01	96	none	NaN	NaN
112	2	77	80	kitchen	sun_aegoxogugdkwpmpj.tif	1192133.372332	1192133.630925	1192134.321054	8.258024e-01	70	37	1192135.465635	1
112	2	78	95	kitchen	sun_aixorpehvfykdynp.tif	1192136.241842	1192136.500430	1192137.190482	7.423880e-01	85	none	NaN	NaN
112	2	79	81	kitchen	sun_aehawpgmrlhlvcow.tif	1192137.960207	1192138.218801	1192138.908993	8.174609e-01	71	none	NaN	NaN
112	2	80	76	kitchen	sun_acwjdupvyjsugpay.tif	1192139.678581	1192139.937172	1192140.627215	6.589736e-01	66	39	1192141.409860	1
112	2	81	61	kitchen	labelme_brsyyvweiuaazfr.tif	1192142.181061	1192142.439650	1192143.129686	8.091195e-01	51	none	NaN	NaN
112	2	82	98	kitchen	sun_akchetnepxlcxhsu.tif	1192143.899424	1192144.158014	1192144.848214	8.007780e-01	88	none	NaN	NaN
112	2	83	91	kitchen	sun_ahljzhgcdpomplvg.tif	1192145.617795	1192145.876388	1192146.566506	6.506322e-01	81	none	NaN	NaN
112	2	84	72	kitchen	sun_abpwyqmlzafvklqo.tif	1192147.336166	1192147.594752	1192148.284781	6.589736e-01	62	none	NaN	NaN
112	2	85	107	kitchen	sun_axyyrmzcupyhlivc.tif	1192149.054537	1192149.313122	1192150.003189	7.423880e-01	97	39	1192151.529733	1
112	2	86	104	kitchen	sun_auticobqsbwgoppi.tif	1192152.307755	1192152.566342	1192153.256565	6.839979e-01	94	none	NaN	NaN
112	2	87	108	kitchen	sun_aymvwlarqodbwuoc.tif	1192154.026123	1192154.284716	1192154.974731	7.257051e-01	98	none	NaN	NaN
112	2	88	93	kitchen	sun_ahspylgoovwmwvgk.tif	1192155.744497	1192156.003084	1192156.693251	8.258024e-01	83	none	NaN	NaN
112	2	89	86	kitchen	sun_aggjlwcdjsjcaemh.tif	1192157.462864	1192157.721450	1192158.411495	8.174609e-01	76	none	NaN	NaN
112	2	90	103	kitchen	sun_aunzlwrbjumxhwdj.tif	1192159.181230	1192159.439823	1192160.130016	6.506322e-01	93	none	NaN	NaN
112	2	91	73	kitchen	sun_abrcnpqqhmjwekyf.tif	1192160.899564	1192161.158185	1192161.848339	7.340465e-01	63	none	NaN	NaN
112	2	92	89	kitchen	sun_agzzivivdpnawacl.tif	1192162.617967	1192162.876560	1192163.566651	7.674123e-01	79	none	NaN	NaN
112	2	93	71	kitchen	sun_abftihopvusyfakt.tif	1192164.336338	1192164.594929	1192165.285154	6.756565e-01	61	none	NaN	NaN
112	2	94	85	kitchen	sun_afuyedyxivkhecmu.tif	1192166.054707	1192166.313296	1192167.003528	8.508267e-01	75	none	NaN	NaN
112	2	95	64	kitchen	sun_aadbddgrdsjugojn.tif	1192167.773062	1192168.031661	1192168.721789	6.673150e-01	54	none	NaN	NaN
112	2	96	110	kitchen	sun_azmutvzbxypaceni.tif	1192169.491443	1192169.750035	1192170.440155	8.424852e-01	100	none	NaN	NaN
112	2	97	70	kitchen	sun_abdxkyyxwfskuaqb.tif	1192171.209814	1192171.468403	1192172.158551	8.341438e-01	60	none	NaN	NaN
112	2	98	99	kitchen	sun_akcjzhbbjlbogpdi.tif	1192172.928185	1192173.186769	1192173.876995	7.840952e-01	89	none	NaN	NaN
112	2	99	79	kitchen	sun_admlmbcdswaszruo.tif	1192174.646548	1192174.905141	1192175.595241	8.091195e-01	69	none	NaN	NaN
112	2	100	69	kitchen	sun_abdenxonkemggwsq.tif	1192176.364918	1192176.623510	1192177.313735	7.257051e-01	59	none	NaN	NaN
112	3	1	27	bathroom	sun_ahcvzmoyaycdoftf.tif	1192197.152179	1192197.410767	1192198.226093	8.258024e-01	17	none	NaN	NaN
112	3	2	21	bathroom	sun_aggnnqpdorgxpvce.tif	1192198.995665	1192199.254256	1192200.069503	6.923394e-01	11	39	1192201.257593	1
112	3	3	19	bathroom	sun_aclfzgynxzxlbepz.tif	1192202.032008	1192202.290597	1192203.105932	8.258024e-01	9	none	NaN	NaN
112	3	4	46	bathroom	sun_apmqjbnwghzuhhzh.tif	1192203.875503	1192204.134087	1192204.949225	7.090222e-01	36	none	NaN	NaN
112	3	5	17	bathroom	sun_acegryoqftbzowsg.tif	1192205.718994	1192205.977585	1192206.792746	8.424852e-01	7	none	NaN	NaN
112	3	6	34	bathroom	sun_alkosphxlxwjwgjd.tif	1192207.562483	1192207.821076	1192208.636308	7.257051e-01	24	none	NaN	NaN
112	3	7	18	bathroom	sun_acgyywnybuveqsro.tif	1192209.405981	1192209.664569	1192210.479878	7.090222e-01	8	none	NaN	NaN
112	3	8	38	bathroom	sun_anhioqovhscjqqwb.tif	1192211.249470	1192211.508061	1192212.323371	6.756565e-01	28	none	NaN	NaN
112	3	9	50	bathroom	sun_aspsyogrekjtfozg.tif	1192213.092969	1192213.351560	1192214.166893	8.424852e-01	40	none	NaN	NaN
112	3	10	29	bathroom	sun_ahqjwnzgolcaoidx.tif	1192214.936456	1192215.195044	1192216.010370	7.090222e-01	19	37	1192217.241626	1
112	3	11	53	bathroom	sun_ausgutylgojavyoq.tif	1192218.014508	1192218.273095	1192219.088296	6.589736e-01	43	none	NaN	NaN
112	3	12	59	bathroom	sun_axyrejkiiaqiurjk.tif	1192219.857997	1192220.116588	1192220.931732	7.840952e-01	49	none	NaN	NaN
112	3	13	24	bathroom	sun_agrwbmhcpmfuwmsg.tif	1192221.701493	1192221.960081	1192222.775291	8.007780e-01	14	none	NaN	NaN
112	3	14	58	bathroom	sun_axxbkopsgyouuebh.tif	1192223.544985	1192223.803574	1192224.618814	7.507294e-01	48	none	NaN	NaN
112	3	15	31	bathroom	sun_akiytfaagpdsphgz.tif	1192225.388472	1192225.647063	1192226.462245	6.839979e-01	21	none	NaN	NaN
112	3	16	13	bathroom	sun_aavhrsfjbserjtht.tif	1192227.231969	1192227.490558	1192228.305863	7.590709e-01	3	none	NaN	NaN
112	3	17	54	bathroom	sun_auzqhkafidnkrwmo.tif	1192229.075462	1192229.334050	1192230.149282	8.341438e-01	44	37	1192231.385582	1
112	3	18	37	bathroom	sun_amzlamotzwfkwjco.tif	1192232.161853	1192232.420447	1192233.235669	7.340465e-01	27	none	NaN	NaN
112	3	19	49	bathroom	sun_asfwthctfqerjvxr.tif	1192234.005348	1192234.263936	1192235.079092	7.173637e-01	39	none	NaN	NaN
112	3	20	45	bathroom	sun_apkxzenqapsujocq.tif	1192235.848837	1192236.107424	1192236.922650	6.756565e-01	35	none	NaN	NaN
112	3	21	39	bathroom	sun_anryaplzeujmzfkd.tif	1192237.692335	1192237.950923	1192238.766179	6.506322e-01	29	none	NaN	NaN
112	3	22	51	bathroom	sun_atstyziqcmkahyxk.tif	1192239.535824	1192239.794414	1192240.609582	7.674123e-01	41	none	NaN	NaN
112	3	23	30	bathroom	sun_ajlawzvmubibwbpy.tif	1192241.379313	1192241.637907	1192242.453172	6.923394e-01	20	none	NaN	NaN
112	3	24	33	bathroom	sun_aljolscmmzydegqp.tif	1192243.222810	1192243.481395	1192244.296549	7.840952e-01	23	none	NaN	NaN
112	3	25	20	bathroom	sun_afcoljnjfoxjtgja.tif	1192245.066301	1192245.324894	1192246.140083	6.756565e-01	10	none	NaN	NaN
112	3	26	60	bathroom	sun_azqyogdvyhahyram.tif	1192246.909796	1192247.168385	1192247.983637	8.091195e-01	50	none	NaN	NaN
112	3	27	22	bathroom	sun_agguqiubmwhqqunb.tif	1192248.753286	1192249.011878	1192249.827123	7.674123e-01	12	37	1192252.225645	0
112	3	28	55	bathroom	sun_avhrdrntsqrjzccq.tif	1192252.999160	1192253.257748	1192254.072882	7.173637e-01	45	none	NaN	NaN
112	3	29	52	bathroom	sun_aunuadmjocsddsrl.tif	1192254.842650	1192255.101239	1192255.916587	7.006808e-01	42	none	NaN	NaN
112	3	30	14	bathroom	sun_abapwbhyhkfixyex.tif	1192256.686144	1192256.944735	1192257.759977	7.924366e-01	4	none	NaN	NaN
112	3	31	35	bathroom	sun_alotolagknyrgtsk.tif	1192258.529637	1192258.788226	1192259.603508	7.757537e-01	25	39	1192260.745636	1
112	3	32	11	bathroom	labelme_sfxiulhjbhlyiyt.tif	1192261.515923	1192261.774517	1192262.589822	7.340465e-01	1	none	NaN	NaN
112	3	33	48	bathroom	sun_aqrpegblszgcoujh.tif	1192263.359421	1192263.618008	1192264.433208	8.258024e-01	38	none	NaN	NaN
112	3	34	28	bathroom	sun_ahijqszoswveeyji.tif	1192265.202912	1192265.461502	1192266.276778	7.507294e-01	18	39	1192267.145580	1
112	3	35	57	bathroom	sun_axldvoqbuvuggfmq.tif	1192267.922276	1192268.180862	1192268.996041	7.924366e-01	47	none	NaN	NaN
112	3	36	26	bathroom	sun_ahaulkltgpkeeemi.tif	1192269.765762	1192270.024356	1192270.839527	7.257051e-01	16	none	NaN	NaN
112	3	37	23	bathroom	sun_aghyqhbptboemmoq.tif	1192271.609257	1192271.867848	1192272.683160	8.174609e-01	13	none	NaN	NaN
112	3	38	47	bathroom	sun_apynckhmoftszqoq.tif	1192273.452752	1192273.711338	1192274.526501	7.423880e-01	37	none	NaN	NaN
112	3	39	42	bathroom	sun_apeeialkgkuxddgh.tif	1192275.296242	1192275.554832	1192276.370852	7.674123e-01	32	39	1192277.425781	1
112	3	40	25	bathroom	sun_agyqfjcfkdcydepw.tif	1192278.199121	1192278.457714	1192279.272907	6.839979e-01	15	none	NaN	NaN
112	3	41	32	bathroom	sun_aleqenyvunhactkl.tif	1192280.042608	1192280.301202	1192281.116475	7.507294e-01	22	39	1192282.225765	1
112	3	42	12	bathroom	sun_aapitsgbtktqubfy.tif	1192283.003875	1192283.262467	1192284.077797	8.007780e-01	2	none	NaN	NaN
112	3	43	36	bathroom	sun_ambriybtogmepttm.tif	1192284.847374	1192285.105961	1192285.921314	7.006808e-01	26	none	NaN	NaN
112	3	44	44	bathroom	sun_apkruvsevgegsdwp.tif	1192286.690866	1192286.949447	1192287.764715	8.508267e-01	34	none	NaN	NaN
112	3	45	56	bathroom	sun_awnqiikzaispgmwo.tif	1192288.534353	1192288.792945	1192289.608262	6.756565e-01	46	none	NaN	NaN
112	3	46	15	bathroom	sun_abjtwfukuwddzted.tif	1192290.377849	1192290.636437	1192291.451667	8.424852e-01	5	none	NaN	NaN
112	3	47	16	bathroom	sun_acduarbnmmoglmiv.tif	1192292.221344	1192292.479933	1192293.295180	6.923394e-01	6	none	NaN	NaN
112	3	48	43	bathroom	sun_apjevzvycyhuqghb.tif	1192294.064836	1192294.323422	1192295.138633	7.757537e-01	33	none	NaN	NaN
112	3	49	40	bathroom	sun_aofnryafpsjimzsb.tif	1192295.908325	1192296.166918	1192296.982247	6.673150e-01	30	none	NaN	NaN
112	3	50	41	bathroom	sun_aoybiabnpadelefl.tif	1192297.751823	1192298.010406	1192298.825665	6.673150e-01	31	none	NaN	NaN
112	3	51	27	bathroom	sun_ahcvzmoyaycdoftf.tif	1192299.595310	1192299.853901	1192300.669169	8.341438e-01	17	37	1192301.449761	1
112	3	52	36	bathroom	sun_ambriybtogmepttm.tif	1192302.222915	1192302.481505	1192303.296817	8.341438e-01	26	none	NaN	NaN
112	3	53	37	bathroom	sun_amzlamotzwfkwjco.tif	1192304.066406	1192304.324996	1192305.140309	8.091195e-01	27	none	NaN	NaN
112	3	54	14	bathroom	sun_abapwbhyhkfixyex.tif	1192305.909903	1192306.168485	1192306.983686	8.007780e-01	4	none	NaN	NaN
112	3	55	40	bathroom	sun_aofnryafpsjimzsb.tif	1192307.753390	1192308.011981	1192308.827307	7.173637e-01	30	none	NaN	NaN
112	3	56	41	bathroom	sun_aoybiabnpadelefl.tif	1192309.596884	1192309.855473	1192310.670673	6.589736e-01	31	none	NaN	NaN
112	3	57	39	bathroom	sun_anryaplzeujmzfkd.tif	1192311.440378	1192311.698970	1192312.514214	6.839979e-01	29	none	NaN	NaN
112	3	58	43	bathroom	sun_apjevzvycyhuqghb.tif	1192313.283870	1192313.542459	1192314.357590	6.923394e-01	33	none	NaN	NaN
112	3	59	60	bathroom	sun_azqyogdvyhahyram.tif	1192315.127364	1192315.385952	1192316.201180	7.006808e-01	50	39	1192319.385666	1
112	3	60	38	bathroom	sun_anhioqovhscjqqwb.tif	1192320.157348	1192320.415937	1192321.231081	7.257051e-01	28	none	NaN	NaN
112	3	61	12	bathroom	sun_aapitsgbtktqubfy.tif	1192322.000836	1192322.259430	1192323.074742	7.423880e-01	2	none	NaN	NaN
112	3	62	11	bathroom	labelme_sfxiulhjbhlyiyt.tif	1192323.844332	1192324.102925	1192324.918181	7.757537e-01	1	none	NaN	NaN
112	3	63	30	bathroom	sun_ajlawzvmubibwbpy.tif	1192325.687821	1192325.946416	1192326.761709	8.174609e-01	20	none	NaN	NaN
112	3	64	28	bathroom	sun_ahijqszoswveeyji.tif	1192327.531315	1192327.789907	1192328.605094	6.506322e-01	18	none	NaN	NaN
112	3	65	48	bathroom	sun_aqrpegblszgcoujh.tif	1192329.374806	1192329.633396	1192330.448621	7.507294e-01	38	none	NaN	NaN
112	3	66	25	bathroom	sun_agyqfjcfkdcydepw.tif	1192331.218300	1192331.476893	1192332.292024	7.423880e-01	15	none	NaN	NaN
112	3	67	23	bathroom	sun_aghyqhbptboemmoq.tif	1192333.061794	1192333.320381	1192334.135676	6.923394e-01	13	none	NaN	NaN
112	3	68	16	bathroom	sun_acduarbnmmoglmiv.tif	1192334.905287	1192335.163875	1192335.979093	7.340465e-01	6	none	NaN	NaN
112	3	69	58	bathroom	sun_axxbkopsgyouuebh.tif	1192336.748776	1192337.007367	1192337.822660	8.258024e-01	48	none	NaN	NaN
112	3	70	21	bathroom	sun_aggnnqpdorgxpvce.tif	1192338.592272	1192338.850857	1192339.666090	8.174609e-01	11	none	NaN	NaN
112	3	71	26	bathroom	sun_ahaulkltgpkeeemi.tif	1192340.435762	1192340.694354	1192341.509624	8.091195e-01	16	none	NaN	NaN
112	3	72	34	bathroom	sun_alkosphxlxwjwgjd.tif	1192342.279262	1192342.537846	1192343.353144	6.506322e-01	24	none	NaN	NaN
112	3	73	52	bathroom	sun_aunuadmjocsddsrl.tif	1192344.122747	1192344.381343	1192345.196596	6.673150e-01	42	none	NaN	NaN
112	3	74	15	bathroom	sun_abjtwfukuwddzted.tif	1192345.966243	1192346.224833	1192347.040015	7.590709e-01	5	none	NaN	NaN
112	3	75	13	bathroom	sun_aavhrsfjbserjtht.tif	1192347.809734	1192348.068322	1192348.883625	7.674123e-01	3	none	NaN	NaN
112	3	76	46	bathroom	sun_apmqjbnwghzuhhzh.tif	1192349.653231	1192349.911820	1192350.727009	8.424852e-01	36	none	NaN	NaN
112	3	77	59	bathroom	sun_axyrejkiiaqiurjk.tif	1192351.496718	1192351.755312	1192352.570539	7.924366e-01	49	none	NaN	NaN
112	3	78	42	bathroom	sun_apeeialkgkuxddgh.tif	1192353.340215	1192353.598801	1192354.413960	7.840952e-01	32	none	NaN	NaN
112	3	79	24	bathroom	sun_agrwbmhcpmfuwmsg.tif	1192355.183703	1192355.442292	1192356.257530	8.007780e-01	14	none	NaN	NaN
112	3	80	35	bathroom	sun_alotolagknyrgtsk.tif	1192357.027195	1192357.285792	1192358.101122	7.173637e-01	25	39	1192358.945672	0
112	3	81	57	bathroom	sun_axldvoqbuvuggfmq.tif	1192359.721532	1192359.980124	1192360.795463	8.258024e-01	47	none	NaN	NaN
112	3	82	32	bathroom	sun_aleqenyvunhactkl.tif	1192361.565025	1192361.823613	1192362.638749	7.423880e-01	22	none	NaN	NaN
112	3	83	55	bathroom	sun_avhrdrntsqrjzccq.tif	1192363.408522	1192363.667110	1192364.482366	7.924366e-01	45	37	1192365.505580	1
112	3	84	22	bathroom	sun_agguqiubmwhqqunb.tif	1192366.278026	1192366.536616	1192367.351889	6.589736e-01	12	none	NaN	NaN
112	3	85	45	bathroom	sun_apkxzenqapsujocq.tif	1192368.121519	1192368.380110	1192369.195402	7.340465e-01	35	none	NaN	NaN
112	3	86	20	bathroom	sun_afcoljnjfoxjtgja.tif	1192369.965011	1192370.223605	1192371.038798	7.840952e-01	10	37	1192371.905427	1
112	3	87	19	bathroom	sun_aclfzgynxzxlbepz.tif	1192372.676033	1192372.934623	1192373.749918	7.590709e-01	9	none	NaN	NaN
112	3	88	31	bathroom	sun_akiytfaagpdsphgz.tif	1192374.519524	1192374.778112	1192375.593292	7.590709e-01	21	none	NaN	NaN
112	3	89	47	bathroom	sun_apynckhmoftszqoq.tif	1192376.363019	1192376.621608	1192377.436991	8.508267e-01	37	none	NaN	NaN
112	3	90	17	bathroom	sun_acegryoqftbzowsg.tif	1192378.206508	1192378.465101	1192379.280299	6.839979e-01	7	none	NaN	NaN
112	3	91	33	bathroom	sun_aljolscmmzydegqp.tif	1192380.050000	1192380.308589	1192381.123774	7.257051e-01	23	none	NaN	NaN
112	3	92	51	bathroom	sun_atstyziqcmkahyxk.tif	1192381.893496	1192382.152079	1192382.967224	6.673150e-01	41	39	1192383.665718	0
112	3	93	54	bathroom	sun_auzqhkafidnkrwmo.tif	1192384.437683	1192384.696273	1192385.511619	8.174609e-01	44	none	NaN	NaN
112	3	94	18	bathroom	sun_acgyywnybuveqsro.tif	1192386.281175	1192386.539764	1192387.355077	7.006808e-01	8	none	NaN	NaN
112	3	95	50	bathroom	sun_aspsyogrekjtfozg.tif	1192388.124668	1192388.383257	1192389.198489	7.090222e-01	40	none	NaN	NaN
112	3	96	53	bathroom	sun_ausgutylgojavyoq.tif	1192389.968160	1192390.226744	1192391.041882	7.757537e-01	43	none	NaN	NaN
112	3	97	56	bathroom	sun_awnqiikzaispgmwo.tif	1192391.811652	1192392.070241	1192392.885572	8.091195e-01	46	37	1192393.665622	1
112	3	98	49	bathroom	sun_asfwthctfqerjvxr.tif	1192394.439253	1192394.697848	1192395.513075	7.590709e-01	39	none	NaN	NaN
112	3	99	44	bathroom	sun_apkruvsevgegsdwp.tif	1192396.282746	1192396.541338	1192397.356589	6.589736e-01	34	none	NaN	NaN
112	3	100	29	bathroom	sun_ahqjwnzgolcaoidx.tif	1192398.126242	1192398.384831	1192399.200127	8.341438e-01	19	none	NaN	NaN
112	4	1	68	kitchen	sun_aaxxjlsuzvqlgylf.tif	1192406.901598	1192407.160186	1192407.858743	7.257051e-01	58	none	NaN	NaN
112	4	2	77	kitchen	sun_acxkpeoqbwcxfvip.tif	1192408.628312	1192408.886896	1192409.585266	7.006808e-01	67	none	NaN	NaN
112	4	3	79	kitchen	sun_admlmbcdswaszruo.tif	1192410.355015	1192410.613610	1192411.312064	8.174609e-01	69	none	NaN	NaN
112	4	4	86	kitchen	sun_aggjlwcdjsjcaemh.tif	1192412.081728	1192412.340317	1192413.038825	7.090222e-01	76	none	NaN	NaN
112	4	5	94	kitchen	sun_ahywdevtimnqcsln.tif	1192413.808439	1192414.067027	1192414.765550	7.006808e-01	84	none	NaN	NaN
112	4	6	95	kitchen	sun_aixorpehvfykdynp.tif	1192415.535146	1192415.793736	1192416.492128	6.756565e-01	85	none	NaN	NaN
112	4	7	75	kitchen	sun_acgtpgfybqjmzeyw.tif	1192417.261858	1192417.520447	1192418.218834	7.507294e-01	65	none	NaN	NaN
112	4	8	88	kitchen	sun_agubuxuukhzyzpdp.tif	1192418.988573	1192419.247157	1192419.945622	6.589736e-01	78	none	NaN	NaN
112	4	9	85	kitchen	sun_afuyedyxivkhecmu.tif	1192420.715281	1192420.973873	1192421.672332	7.840952e-01	75	37	1192422.657710	1
112	4	10	104	kitchen	sun_auticobqsbwgoppi.tif	1192423.434637	1192423.693230	1192424.391637	7.590709e-01	94	39	1192426.049739	1
112	4	11	72	kitchen	sun_abpwyqmlzafvklqo.tif	1192426.821328	1192427.079921	1192427.778458	7.924366e-01	62	none	NaN	NaN
112	4	12	66	kitchen	sun_aapllqyqlykszopd.tif	1192428.548042	1192428.806628	1192429.505196	7.257051e-01	56	none	NaN	NaN
112	4	13	69	kitchen	sun_abdenxonkemggwsq.tif	1192430.274747	1192430.533335	1192431.231735	8.091195e-01	59	37	1192434.393727	0
112	4	14	108	kitchen	sun_aymvwlarqodbwuoc.tif	1192435.171259	1192435.429858	1192436.128315	6.756565e-01	98	none	NaN	NaN
112	4	15	105	kitchen	sun_avszsnwsbuqfgzbn.tif	1192436.897978	1192437.156565	1192437.855132	7.507294e-01	95	none	NaN	NaN
112	4	16	78	kitchen	sun_adgqasybjyktddhj.tif	1192438.624687	1192438.883275	1192439.581683	8.007780e-01	68	none	NaN	NaN
112	4	17	101	kitchen	sun_aqeaevwwwjoqhzvl.tif	1192440.351396	1192440.609985	1192441.308405	8.508267e-01	91	37	1192442.561719	0
112	4	18	99	kitchen	sun_akcjzhbbjlbogpdi.tif	1192443.337685	1192443.596276	1192444.294830	6.839979e-01	89	none	NaN	NaN
112	4	19	90	kitchen	sun_ahdycvpopffkzzsu.tif	1192445.064397	1192445.322991	1192446.021410	7.423880e-01	80	none	NaN	NaN
112	4	20	70	kitchen	sun_abdxkyyxwfskuaqb.tif	1192446.791109	1192447.049698	1192447.748199	8.341438e-01	60	none	NaN	NaN
112	4	21	81	kitchen	sun_aehawpgmrlhlvcow.tif	1192448.517822	1192448.776411	1192449.474893	8.007780e-01	71	37	1192451.113622	0
112	4	22	106	kitchen	sun_awcpdzzznmweyyhv.tif	1192451.887820	1192452.146413	1192452.844967	8.091195e-01	96	none	NaN	NaN
112	4	23	93	kitchen	sun_ahspylgoovwmwvgk.tif	1192453.614533	1192453.873115	1192454.571567	6.506322e-01	83	none	NaN	NaN
112	4	24	97	kitchen	sun_ajkqhtgcbgpcwrwn.tif	1192455.341244	1192455.599831	1192456.298363	7.173637e-01	87	none	NaN	NaN
112	4	25	91	kitchen	sun_ahljzhgcdpomplvg.tif	1192457.067957	1192457.326539	1192458.024918	7.257051e-01	81	none	NaN	NaN
112	4	26	96	kitchen	sun_ajcbwwvdlsvjyzje.tif	1192458.794664	1192459.053254	1192459.751638	8.091195e-01	86	none	NaN	NaN
112	4	27	62	kitchen	labelme_kxvouciolcpqplr.tif	1192460.521372	1192460.779963	1192461.478370	7.757537e-01	52	none	NaN	NaN
112	4	28	109	kitchen	sun_aypmqwcualkenuoe.tif	1192462.248087	1192462.506678	1192463.205052	7.757537e-01	99	37	1192464.161734	1
112	4	29	76	kitchen	sun_acwjdupvyjsugpay.tif	1192464.934078	1192465.192670	1192465.891078	8.091195e-01	66	none	NaN	NaN
112	4	30	87	kitchen	sun_agorklincwxrdtga.tif	1192466.660786	1192466.919380	1192467.617754	8.424852e-01	77	none	NaN	NaN
112	4	31	102	kitchen	sun_auaiucuqpdausiva.tif	1192468.379160	1192468.637750	1192469.336245	8.341438e-01	92	none	NaN	NaN
112	4	32	110	kitchen	sun_azmutvzbxypaceni.tif	1192470.105866	1192470.364457	1192471.063027	7.674123e-01	100	39	1192471.985660	1
112	4	33	98	kitchen	sun_akchetnepxlcxhsu.tif	1192472.758495	1192473.017087	1192473.715449	6.673150e-01	88	none	NaN	NaN
112	4	34	100	kitchen	sun_amjjdeyrggfqgmom.tif	1192474.485206	1192474.743795	1192475.442230	7.340465e-01	90	37	1192476.121722	1
112	4	35	107	kitchen	sun_axyyrmzcupyhlivc.tif	1192476.895924	1192477.154514	1192477.852914	7.674123e-01	97	none	NaN	NaN
112	4	36	65	kitchen	sun_aamedkxepzlwuxes.tif	1192478.622636	1192478.881227	1192479.579789	8.174609e-01	55	none	NaN	NaN
112	4	37	64	kitchen	sun_aadbddgrdsjugojn.tif	1192480.349346	1192480.607938	1192481.306417	7.340465e-01	54	37	1192482.129748	1
112	4	38	89	kitchen	sun_agzzivivdpnawacl.tif	1192482.901875	1192483.160466	1192483.858884	8.424852e-01	79	none	NaN	NaN
112	4	39	103	kitchen	sun_aunzlwrbjumxhwdj.tif	1192484.628585	1192484.887168	1192485.585624	6.839979e-01	93	none	NaN	NaN
112	4	40	71	kitchen	sun_abftihopvusyfakt.tif	1192486.355298	1192486.613889	1192487.312321	7.423880e-01	61	none	NaN	NaN
112	4	41	83	kitchen	sun_aeqdocilnnpuvuhx.tif	1192488.082009	1192488.340594	1192489.039010	6.506322e-01	73	none	NaN	NaN
112	4	42	73	kitchen	sun_abrcnpqqhmjwekyf.tif	1192489.808716	1192490.067303	1192490.765723	6.506322e-01	63	none	NaN	NaN
112	4	43	84	kitchen	sun_aexklacwqwezaorf.tif	1192491.535383	1192491.794015	1192492.492456	7.173637e-01	74	none	NaN	NaN
112	4	44	92	kitchen	sun_ahpczsiumwwocjkv.tif	1192493.262136	1192493.520726	1192494.219285	7.674123e-01	82	none	NaN	NaN
112	4	45	82	kitchen	sun_aenotlpyftoioydp.tif	1192494.988848	1192495.247434	1192495.945916	8.258024e-01	72	39	1192496.825828	1
112	4	46	80	kitchen	sun_aegoxogugdkwpmpj.tif	1192497.599766	1192497.858358	1192498.556850	6.923394e-01	70	none	NaN	NaN
112	4	47	61	kitchen	labelme_brsyyvweiuaazfr.tif	1192499.326477	1192499.585071	1192500.283453	7.090222e-01	51	none	NaN	NaN
112	4	48	63	kitchen	labelme_rykdqxenmhulbdn.tif	1192501.053188	1192501.311780	1192502.010185	8.174609e-01	53	37	1192502.921612	1
112	4	49	67	kitchen	sun_aarfiyshqohlwkmo.tif	1192503.697476	1192503.956060	1192504.654528	7.006808e-01	57	none	NaN	NaN
112	4	50	74	kitchen	sun_acfmftudsenhrfhy.tif	1192505.424180	1192505.682778	1192506.381199	7.423880e-01	64	none	NaN	NaN
112	4	51	91	kitchen	sun_ahljzhgcdpomplvg.tif	1192507.150895	1192507.409482	1192508.107841	7.924366e-01	81	none	NaN	NaN
112	4	52	85	kitchen	sun_afuyedyxivkhecmu.tif	1192508.869263	1192509.127853	1192509.826359	8.258024e-01	75	none	NaN	NaN
112	4	53	78	kitchen	sun_adgqasybjyktddhj.tif	1192510.595972	1192510.854565	1192511.552956	6.756565e-01	68	none	NaN	NaN
112	4	54	92	kitchen	sun_ahpczsiumwwocjkv.tif	1192512.322684	1192512.581273	1192513.279709	6.589736e-01	82	none	NaN	NaN
112	4	55	87	kitchen	sun_agorklincwxrdtga.tif	1192514.049391	1192514.307985	1192515.006515	8.258024e-01	77	none	NaN	NaN
112	4	56	102	kitchen	sun_auaiucuqpdausiva.tif	1192515.776104	1192516.034693	1192516.733205	7.257051e-01	92	none	NaN	NaN
112	4	57	66	kitchen	sun_aapllqyqlykszopd.tif	1192517.502814	1192517.761404	1192518.459915	8.007780e-01	56	39	1192519.489841	1
112	4	58	106	kitchen	sun_awcpdzzznmweyyhv.tif	1192520.263880	1192520.522466	1192521.220920	7.090222e-01	96	none	NaN	NaN
112	4	59	64	kitchen	sun_aadbddgrdsjugojn.tif	1192521.990593	1192522.249180	1192522.947751	7.090222e-01	54	none	NaN	NaN
112	4	60	80	kitchen	sun_aegoxogugdkwpmpj.tif	1192523.717302	1192523.975889	1192524.674245	6.673150e-01	70	none	NaN	NaN
112	4	61	73	kitchen	sun_abrcnpqqhmjwekyf.tif	1192525.444011	1192525.702605	1192526.400965	7.674123e-01	63	none	NaN	NaN
112	4	62	105	kitchen	sun_avszsnwsbuqfgzbn.tif	1192527.162388	1192527.420973	1192528.119421	7.423880e-01	95	none	NaN	NaN
112	4	63	62	kitchen	labelme_kxvouciolcpqplr.tif	1192528.889091	1192529.147677	1192529.846142	7.173637e-01	52	none	NaN	NaN
112	4	64	89	kitchen	sun_agzzivivdpnawacl.tif	1192530.615800	1192530.874395	1192531.572914	6.673150e-01	79	none	NaN	NaN
112	4	65	103	kitchen	sun_aunzlwrbjumxhwdj.tif	1192532.342514	1192532.601100	1192533.299606	8.258024e-01	93	37	1192533.961634	1
112	4	66	108	kitchen	sun_aymvwlarqodbwuoc.tif	1192534.736552	1192534.995143	1192535.693507	8.424852e-01	98	none	NaN	NaN
112	4	67	72	kitchen	sun_abpwyqmlzafvklqo.tif	1192536.463262	1192536.721851	1192537.420291	7.590709e-01	62	none	NaN	NaN
112	4	68	70	kitchen	sun_abdxkyyxwfskuaqb.tif	1192538.189969	1192538.448560	1192539.147127	6.923394e-01	60	none	NaN	NaN
112	4	69	68	kitchen	sun_aaxxjlsuzvqlgylf.tif	1192539.916682	1192540.175268	1192540.873668	6.756565e-01	58	37	1192541.489581	1
112	4	70	110	kitchen	sun_azmutvzbxypaceni.tif	1192542.260672	1192542.519257	1192543.217729	7.507294e-01	100	none	NaN	NaN
112	4	71	107	kitchen	sun_axyyrmzcupyhlivc.tif	1192543.987382	1192544.245973	1192544.944393	6.923394e-01	97	none	NaN	NaN
112	4	72	97	kitchen	sun_ajkqhtgcbgpcwrwn.tif	1192545.714090	1192545.972680	1192546.671140	7.340465e-01	87	none	NaN	NaN
112	4	73	65	kitchen	sun_aamedkxepzlwuxes.tif	1192547.440805	1192547.699391	1192548.397768	7.590709e-01	55	39	1192549.089832	1
112	4	74	99	kitchen	sun_akcjzhbbjlbogpdi.tif	1192549.868205	1192550.126793	1192550.825348	6.839979e-01	89	none	NaN	NaN
112	4	75	94	kitchen	sun_ahywdevtimnqcsln.tif	1192551.594915	1192551.853504	1192552.551871	7.840952e-01	84	none	NaN	NaN
112	4	76	83	kitchen	sun_aeqdocilnnpuvuhx.tif	1192553.321627	1192553.580219	1192554.278748	8.341438e-01	73	none	NaN	NaN
112	4	77	86	kitchen	sun_aggjlwcdjsjcaemh.tif	1192555.048339	1192555.306923	1192556.005349	6.673150e-01	76	none	NaN	NaN
112	4	78	95	kitchen	sun_aixorpehvfykdynp.tif	1192556.775047	1192557.033633	1192557.732065	7.590709e-01	85	none	NaN	NaN
112	4	79	74	kitchen	sun_acfmftudsenhrfhy.tif	1192558.501758	1192558.760345	1192559.458800	7.590709e-01	64	none	NaN	NaN
112	4	80	77	kitchen	sun_acxkpeoqbwcxfvip.tif	1192560.228465	1192560.487058	1192561.185607	7.757537e-01	67	none	NaN	NaN
112	4	81	79	kitchen	sun_admlmbcdswaszruo.tif	1192561.955179	1192562.213765	1192562.912335	7.924366e-01	69	none	NaN	NaN
112	4	82	84	kitchen	sun_aexklacwqwezaorf.tif	1192563.681891	1192563.940478	1192564.638939	8.508267e-01	74	none	NaN	NaN
112	4	83	88	kitchen	sun_agubuxuukhzyzpdp.tif	1192565.408597	1192565.667185	1192566.365611	7.924366e-01	78	none	NaN	NaN
112	4	84	109	kitchen	sun_aypmqwcualkenuoe.tif	1192567.135306	1192567.393897	1192568.092623	8.424852e-01	99	none	NaN	NaN
112	4	85	63	kitchen	labelme_rykdqxenmhulbdn.tif	1192568.862019	1192569.120606	1192569.819178	6.589736e-01	53	none	NaN	NaN
112	4	86	101	kitchen	sun_aqeaevwwwjoqhzvl.tif	1192570.588729	1192570.847318	1192571.545788	8.341438e-01	91	none	NaN	NaN
112	4	87	93	kitchen	sun_ahspylgoovwmwvgk.tif	1192572.315438	1192572.574029	1192573.272460	7.840952e-01	83	none	NaN	NaN
112	4	88	81	kitchen	sun_aehawpgmrlhlvcow.tif	1192574.042148	1192574.300734	1192574.999093	7.340465e-01	71	none	NaN	NaN
112	4	89	90	kitchen	sun_ahdycvpopffkzzsu.tif	1192575.768862	1192576.027449	1192576.725991	8.258024e-01	80	none	NaN	NaN
112	4	90	98	kitchen	sun_akchetnepxlcxhsu.tif	1192577.495574	1192577.754157	1192578.452707	7.757537e-01	88	none	NaN	NaN
112	4	91	69	kitchen	sun_abdenxonkemggwsq.tif	1192579.222276	1192579.480871	1192580.179436	6.923394e-01	59	none	NaN	NaN
112	4	92	96	kitchen	sun_ajcbwwvdlsvjyzje.tif	1192580.948991	1192581.207578	1192581.906130	6.839979e-01	86	none	NaN	NaN
112	4	93	75	kitchen	sun_acgtpgfybqjmzeyw.tif	1192582.675699	1192582.934285	1192583.632839	8.174609e-01	65	none	NaN	NaN
112	4	94	76	kitchen	sun_acwjdupvyjsugpay.tif	1192584.402415	1192584.661000	1192585.359411	7.173637e-01	66	none	NaN	NaN
112	4	95	104	kitchen	sun_auticobqsbwgoppi.tif	1192586.129125	1192586.387714	1192587.086065	8.007780e-01	94	none	NaN	NaN
112	4	96	82	kitchen	sun_aenotlpyftoioydp.tif	1192587.847489	1192588.106082	1192588.804594	7.840952e-01	72	none	NaN	NaN
112	4	97	61	kitchen	labelme_brsyyvweiuaazfr.tif	1192589.574204	1192589.832790	1192590.531320	7.006808e-01	51	none	NaN	NaN
112	4	98	71	kitchen	sun_abftihopvusyfakt.tif	1192591.300915	1192591.559501	1192592.257968	6.589736e-01	61	none	NaN	NaN
112	4	99	67	kitchen	sun_aarfiyshqohlwkmo.tif	1192593.027618	1192593.286210	1192593.984629	6.923394e-01	57	none	NaN	NaN
112	4	100	100	kitchen	sun_amjjdeyrggfqgmom.tif	1192594.754329	1192595.012924	1192595.711415	7.507294e-01	90	none	NaN	NaN
112	5	1	47	bathroom	sun_apynckhmoftszqoq.tif	1192603.871697	1192604.130283	1192604.837061	7.590709e-01	37	none	NaN	NaN
112	5	2	55	bathroom	sun_avhrdrntsqrjzccq.tif	1192605.606745	1192605.865338	1192606.572151	6.506322e-01	45	39	1192607.553800	1
112	5	3	45	bathroom	sun_apkxzenqapsujocq.tif	1192608.326106	1192608.584695	1192609.292200	7.423880e-01	35	none	NaN	NaN
112	5	4	41	bathroom	sun_aoybiabnpadelefl.tif	1192610.061161	1192610.319746	1192611.026522	7.090222e-01	31	none	NaN	NaN
112	5	5	21	bathroom	sun_aggnnqpdorgxpvce.tif	1192611.796210	1192612.054797	1192612.761584	7.173637e-01	11	none	NaN	NaN
112	5	6	36	bathroom	sun_ambriybtogmepttm.tif	1192613.531261	1192613.789857	1192614.496633	8.508267e-01	26	none	NaN	NaN
112	5	7	24	bathroom	sun_agrwbmhcpmfuwmsg.tif	1192615.266312	1192615.524909	1192616.231814	6.756565e-01	14	none	NaN	NaN
112	5	8	37	bathroom	sun_amzlamotzwfkwjco.tif	1192617.001368	1192617.259958	1192617.966760	7.006808e-01	27	none	NaN	NaN
112	5	9	20	bathroom	sun_afcoljnjfoxjtgja.tif	1192618.736415	1192618.995008	1192619.701814	7.257051e-01	10	none	NaN	NaN
112	5	10	40	bathroom	sun_aofnryafpsjimzsb.tif	1192620.471468	1192620.730062	1192621.436974	7.507294e-01	30	none	NaN	NaN
112	5	11	42	bathroom	sun_apeeialkgkuxddgh.tif	1192622.206524	1192622.465110	1192623.171932	8.091195e-01	32	none	NaN	NaN
112	5	12	13	bathroom	sun_aavhrsfjbserjtht.tif	1192623.941574	1192624.200165	1192624.907259	8.174609e-01	3	none	NaN	NaN
112	5	13	11	bathroom	labelme_sfxiulhjbhlyiyt.tif	1192625.676629	1192625.935216	1192626.642097	7.257051e-01	1	none	NaN	NaN
112	5	14	34	bathroom	sun_alkosphxlxwjwgjd.tif	1192627.411677	1192627.670270	1192628.377055	6.589736e-01	24	37	1192629.329779	1
112	5	15	51	bathroom	sun_atstyziqcmkahyxk.tif	1192630.106017	1192630.364647	1192631.071438	7.257051e-01	41	39	1192632.233753	1
112	5	16	32	bathroom	sun_aleqenyvunhactkl.tif	1192633.008888	1192633.267472	1192633.974217	7.840952e-01	22	none	NaN	NaN
112	5	17	26	bathroom	sun_ahaulkltgpkeeemi.tif	1192634.743942	1192635.002528	1192635.709475	7.924366e-01	16	none	NaN	NaN
112	5	18	33	bathroom	sun_aljolscmmzydegqp.tif	1192636.478994	1192636.737583	1192637.444379	7.006808e-01	23	39	1192639.969611	0
112	5	19	28	bathroom	sun_ahijqszoswveeyji.tif	1192640.741544	1192641.000135	1192641.706831	7.006808e-01	18	none	NaN	NaN
112	5	20	19	bathroom	sun_aclfzgynxzxlbepz.tif	1192642.476602	1192642.735192	1192643.441979	7.590709e-01	9	none	NaN	NaN
112	5	21	35	bathroom	sun_alotolagknyrgtsk.tif	1192644.211654	1192644.470242	1192645.177091	7.173637e-01	25	none	NaN	NaN
112	5	22	58	bathroom	sun_axxbkopsgyouuebh.tif	1192645.946704	1192646.205296	1192646.912013	8.508267e-01	48	none	NaN	NaN
112	5	23	27	bathroom	sun_ahcvzmoyaycdoftf.tif	1192647.681756	1192647.940345	1192648.647047	7.173637e-01	17	none	NaN	NaN
112	5	24	23	bathroom	sun_aghyqhbptboemmoq.tif	1192649.416807	1192649.675399	1192650.382272	8.091195e-01	13	none	NaN	NaN
112	5	25	56	bathroom	sun_awnqiikzaispgmwo.tif	1192651.151861	1192651.410448	1192652.117365	8.174609e-01	46	none	NaN	NaN
112	5	26	15	bathroom	sun_abjtwfukuwddzted.tif	1192652.886912	1192653.145501	1192653.852398	7.423880e-01	5	none	NaN	NaN
112	5	27	48	bathroom	sun_aqrpegblszgcoujh.tif	1192654.621960	1192654.880556	1192655.587444	8.424852e-01	38	none	NaN	NaN
112	5	28	18	bathroom	sun_acgyywnybuveqsro.tif	1192656.357010	1192656.615603	1192657.322446	8.174609e-01	8	none	NaN	NaN
112	5	29	60	bathroom	sun_azqyogdvyhahyram.tif	1192658.092069	1192658.350603	1192659.057417	8.007780e-01	50	none	NaN	NaN
112	5	30	46	bathroom	sun_apmqjbnwghzuhhzh.tif	1192659.827119	1192660.085707	1192660.792488	6.756565e-01	36	none	NaN	NaN
112	5	31	30	bathroom	sun_ajlawzvmubibwbpy.tif	1192661.562172	1192661.820763	1192662.527581	6.589736e-01	20	none	NaN	NaN
112	5	32	31	bathroom	sun_akiytfaagpdsphgz.tif	1192663.297226	1192663.555812	1192664.262729	8.424852e-01	21	none	NaN	NaN
112	5	33	16	bathroom	sun_acduarbnmmoglmiv.tif	1192665.032275	1192665.290867	1192665.997732	6.673150e-01	6	none	NaN	NaN
112	5	34	29	bathroom	sun_ahqjwnzgolcaoidx.tif	1192666.767325	1192667.025917	1192667.732841	7.090222e-01	19	37	1192668.641466	0
112	5	35	49	bathroom	sun_asfwthctfqerjvxr.tif	1192669.419954	1192669.678544	1192670.385338	7.674123e-01	39	none	NaN	NaN
112	5	36	43	bathroom	sun_apjevzvycyhuqghb.tif	1192671.155007	1192671.413595	1192672.120295	8.007780e-01	33	none	NaN	NaN
112	5	37	22	bathroom	sun_agguqiubmwhqqunb.tif	1192672.890054	1192673.148647	1192673.855421	7.006808e-01	12	none	NaN	NaN
112	5	38	17	bathroom	sun_acegryoqftbzowsg.tif	1192674.625111	1192674.883696	1192675.590511	6.673150e-01	7	none	NaN	NaN
112	5	39	44	bathroom	sun_apkruvsevgegsdwp.tif	1192676.360162	1192676.618751	1192677.325662	7.757537e-01	34	39	1192678.625472	1
112	5	40	52	bathroom	sun_aunuadmjocsddsrl.tif	1192679.396502	1192679.655095	1192680.361981	8.007780e-01	42	none	NaN	NaN
112	5	41	59	bathroom	sun_axyrejkiiaqiurjk.tif	1192681.131556	1192681.390145	1192682.096983	8.007780e-01	49	none	NaN	NaN
112	5	42	53	bathroom	sun_ausgutylgojavyoq.tif	1192682.866606	1192683.125195	1192683.832052	7.090222e-01	43	none	NaN	NaN
112	5	43	12	bathroom	sun_aapitsgbtktqubfy.tif	1192684.601654	1192684.860239	1192685.567000	6.589736e-01	2	none	NaN	NaN
112	5	44	25	bathroom	sun_agyqfjcfkdcydepw.tif	1192686.336708	1192686.595301	1192687.302096	7.674123e-01	15	none	NaN	NaN
112	5	45	14	bathroom	sun_abapwbhyhkfixyex.tif	1192688.063423	1192688.322010	1192689.028873	7.590709e-01	4	none	NaN	NaN
112	5	46	54	bathroom	sun_auzqhkafidnkrwmo.tif	1192689.798474	1192690.057063	1192690.763798	8.091195e-01	44	none	NaN	NaN
112	5	47	39	bathroom	sun_anryaplzeujmzfkd.tif	1192691.533525	1192691.792111	1192692.498936	7.840952e-01	29	none	NaN	NaN
112	5	48	38	bathroom	sun_anhioqovhscjqqwb.tif	1192693.268575	1192693.527165	1192694.233859	6.756565e-01	28	none	NaN	NaN
112	5	49	57	bathroom	sun_axldvoqbuvuggfmq.tif	1192695.003627	1192695.262219	1192695.968997	7.757537e-01	47	none	NaN	NaN
112	5	50	50	bathroom	sun_aspsyogrekjtfozg.tif	1192696.738676	1192696.997266	1192697.704020	8.091195e-01	40	none	NaN	NaN
112	5	51	50	bathroom	sun_aspsyogrekjtfozg.tif	1192698.473731	1192698.732320	1192699.439032	7.674123e-01	40	none	NaN	NaN
112	5	52	58	bathroom	sun_axxbkopsgyouuebh.tif	1192700.208782	1192700.467372	1192701.174199	8.258024e-01	48	none	NaN	NaN
112	5	53	13	bathroom	sun_aavhrsfjbserjtht.tif	1192701.943840	1192702.202425	1192702.909124	8.258024e-01	3	none	NaN	NaN
112	5	54	28	bathroom	sun_ahijqszoswveeyji.tif	1192703.670551	1192703.929137	1192704.635884	7.423880e-01	18	none	NaN	NaN
112	5	55	31	bathroom	sun_akiytfaagpdsphgz.tif	1192705.405595	1192705.664186	1192706.370913	7.590709e-01	21	none	NaN	NaN
112	5	56	14	bathroom	sun_abapwbhyhkfixyex.tif	1192707.140645	1192707.399237	1192708.106002	8.341438e-01	4	none	NaN	NaN
112	5	57	26	bathroom	sun_ahaulkltgpkeeemi.tif	1192708.875703	1192709.134293	1192709.841032	7.340465e-01	16	none	NaN	NaN
112	5	58	45	bathroom	sun_apkxzenqapsujocq.tif	1192710.610755	1192710.869344	1192711.576143	8.258024e-01	35	none	NaN	NaN
112	5	59	52	bathroom	sun_aunuadmjocsddsrl.tif	1192712.345806	1192712.604392	1192713.311091	7.840952e-01	42	none	NaN	NaN
112	5	60	15	bathroom	sun_abjtwfukuwddzted.tif	1192714.080859	1192714.339449	1192715.046249	8.424852e-01	5	none	NaN	NaN
112	5	61	42	bathroom	sun_apeeialkgkuxddgh.tif	1192715.815906	1192716.074498	1192716.781405	8.341438e-01	32	none	NaN	NaN
112	5	62	32	bathroom	sun_aleqenyvunhactkl.tif	1192717.550961	1192717.809548	1192718.516436	8.341438e-01	22	none	NaN	NaN
112	5	63	34	bathroom	sun_alkosphxlxwjwgjd.tif	1192719.286013	1192719.544605	1192720.251453	7.757537e-01	24	none	NaN	NaN
112	5	64	16	bathroom	sun_acduarbnmmoglmiv.tif	1192721.021062	1192721.279656	1192721.986525	8.258024e-01	6	none	NaN	NaN
112	5	65	44	bathroom	sun_apkruvsevgegsdwp.tif	1192722.756117	1192723.014707	1192723.721468	7.590709e-01	34	none	NaN	NaN
112	5	66	36	bathroom	sun_ambriybtogmepttm.tif	1192724.491170	1192724.749761	1192725.456636	7.507294e-01	26	none	NaN	NaN
112	5	67	27	bathroom	sun_ahcvzmoyaycdoftf.tif	1192726.226215	1192726.484812	1192727.191631	6.839979e-01	17	none	NaN	NaN
112	5	68	33	bathroom	sun_aljolscmmzydegqp.tif	1192727.961273	1192728.219862	1192728.926583	8.174609e-01	23	39	1192730.313434	1
112	5	69	49	bathroom	sun_asfwthctfqerjvxr.tif	1192731.089374	1192731.347960	1192732.054661	6.923394e-01	39	none	NaN	NaN
112	5	70	46	bathroom	sun_apmqjbnwghzuhhzh.tif	1192732.824420	1192733.083012	1192733.789763	6.589736e-01	36	39	1192734.953846	1
112	5	71	60	bathroom	sun_azqyogdvyhahyram.tif	1192735.727296	1192735.985887	1192736.692662	6.923394e-01	50	37	1192737.569794	1
112	5	72	56	bathroom	sun_awnqiikzaispgmwo.tif	1192738.346558	1192738.605150	1192739.312058	8.341438e-01	46	none	NaN	NaN
112	5	73	53	bathroom	sun_ausgutylgojavyoq.tif	1192740.081613	1192740.340200	1192741.046949	7.924366e-01	43	none	NaN	NaN
112	5	74	12	bathroom	sun_aapitsgbtktqubfy.tif	1192741.816661	1192742.075253	1192742.782023	7.924366e-01	2	none	NaN	NaN
112	5	75	38	bathroom	sun_anhioqovhscjqqwb.tif	1192743.551714	1192743.810305	1192744.517046	6.923394e-01	28	none	NaN	NaN
112	5	76	47	bathroom	sun_apynckhmoftszqoq.tif	1192745.286765	1192745.545355	1192746.252213	6.923394e-01	37	none	NaN	NaN
112	5	77	55	bathroom	sun_avhrdrntsqrjzccq.tif	1192747.021817	1192747.280407	1192747.987126	6.839979e-01	45	none	NaN	NaN
112	5	78	29	bathroom	sun_ahqjwnzgolcaoidx.tif	1192748.756869	1192749.015464	1192749.722219	8.424852e-01	19	none	NaN	NaN
112	5	79	20	bathroom	sun_afcoljnjfoxjtgja.tif	1192750.491923	1192750.750511	1192751.457359	7.840952e-01	10	37	1192752.401828	1
112	5	80	59	bathroom	sun_axyrejkiiaqiurjk.tif	1192753.177915	1192753.436504	1192754.143723	6.506322e-01	49	none	NaN	NaN
112	5	81	39	bathroom	sun_anryaplzeujmzfkd.tif	1192754.912967	1192755.171555	1192755.878435	7.257051e-01	29	none	NaN	NaN
112	5	82	18	bathroom	sun_acgyywnybuveqsro.tif	1192756.648021	1192756.906612	1192757.613346	7.340465e-01	8	none	NaN	NaN
112	5	83	21	bathroom	sun_aggnnqpdorgxpvce.tif	1192758.383069	1192758.641661	1192759.348446	7.090222e-01	11	none	NaN	NaN
112	5	84	37	bathroom	sun_amzlamotzwfkwjco.tif	1192760.118124	1192760.376714	1192761.083464	7.173637e-01	27	39	1192762.161897	1
112	5	85	11	bathroom	labelme_sfxiulhjbhlyiyt.tif	1192762.937584	1192763.196171	1192763.902905	7.340465e-01	1	37	1192764.505552	1
112	5	86	35	bathroom	sun_alotolagknyrgtsk.tif	1192765.281570	1192765.540159	1192766.247070	7.507294e-01	25	37	1192766.881572	1
112	5	87	30	bathroom	sun_ajlawzvmubibwbpy.tif	1192767.658931	1192767.917517	1192768.624326	7.674123e-01	20	none	NaN	NaN
112	5	88	57	bathroom	sun_axldvoqbuvuggfmq.tif	1192769.393981	1192769.652567	1192770.359426	6.839979e-01	47	none	NaN	NaN
112	5	89	22	bathroom	sun_agguqiubmwhqqunb.tif	1192771.129032	1192771.387619	1192772.094356	6.756565e-01	12	none	NaN	NaN
112	5	90	19	bathroom	sun_aclfzgynxzxlbepz.tif	1192772.864079	1192773.122671	1192773.829460	7.340465e-01	9	none	NaN	NaN
112	5	91	25	bathroom	sun_agyqfjcfkdcydepw.tif	1192774.599129	1192774.857722	1192775.564521	6.673150e-01	15	37	1192776.689585	1
112	5	92	43	bathroom	sun_apjevzvycyhuqghb.tif	1192777.460293	1192777.718891	1192778.425733	6.673150e-01	33	none	NaN	NaN
112	5	93	54	bathroom	sun_auzqhkafidnkrwmo.tif	1192779.195355	1192779.453943	1192780.160665	7.757537e-01	44	none	NaN	NaN
112	5	94	51	bathroom	sun_atstyziqcmkahyxk.tif	1192780.930401	1192781.189001	1192781.895712	7.423880e-01	41	none	NaN	NaN
112	5	95	24	bathroom	sun_agrwbmhcpmfuwmsg.tif	1192782.665457	1192782.924042	1192783.630769	6.839979e-01	14	none	NaN	NaN
112	5	96	23	bathroom	sun_aghyqhbptboemmoq.tif	1192784.400508	1192784.659097	1192785.365829	6.923394e-01	13	39	1192786.305758	1
112	5	97	40	bathroom	sun_aofnryafpsjimzsb.tif	1192787.078164	1192787.336752	1192788.043511	6.506322e-01	30	none	NaN	NaN
112	5	98	41	bathroom	sun_aoybiabnpadelefl.tif	1192788.813209	1192789.071801	1192789.778603	7.507294e-01	31	none	NaN	NaN
112	5	99	48	bathroom	sun_aqrpegblszgcoujh.tif	1192790.548261	1192790.806857	1192791.513602	7.924366e-01	38	none	NaN	NaN
112	5	100	17	bathroom	sun_acegryoqftbzowsg.tif	1192792.283316	1192792.541905	1192793.248712	8.258024e-01	7	none	NaN	NaN
112	6	1	64	kitchen	sun_aadbddgrdsjugojn.tif	1192807.973865	1192808.232448	1192808.972577	8.424852e-01	54	none	NaN	NaN
112	6	2	81	kitchen	sun_aehawpgmrlhlvcow.tif	1192809.742280	1192810.000869	1192810.740975	7.090222e-01	71	none	NaN	NaN
112	6	3	108	kitchen	sun_aymvwlarqodbwuoc.tif	1192811.510694	1192811.769283	1192812.509464	6.839979e-01	98	none	NaN	NaN
112	6	4	65	kitchen	sun_aamedkxepzlwuxes.tif	1192813.279116	1192813.537699	1192814.277807	8.258024e-01	55	none	NaN	NaN
112	6	5	87	kitchen	sun_agorklincwxrdtga.tif	1192815.047530	1192815.306123	1192816.046359	8.174609e-01	77	none	NaN	NaN
112	6	6	90	kitchen	sun_ahdycvpopffkzzsu.tif	1192816.815949	1192817.074539	1192817.814601	7.507294e-01	80	none	NaN	NaN
112	6	7	99	kitchen	sun_akcjzhbbjlbogpdi.tif	1192818.584368	1192818.842954	1192819.583066	7.674123e-01	89	39	1192820.385606	1
112	6	8	93	kitchen	sun_ahspylgoovwmwvgk.tif	1192821.161919	1192821.420511	1192822.160668	7.006808e-01	83	none	NaN	NaN
112	6	9	62	kitchen	labelme_kxvouciolcpqplr.tif	1192822.930342	1192823.188927	1192823.929211	6.673150e-01	52	none	NaN	NaN
112	6	10	69	kitchen	sun_abdenxonkemggwsq.tif	1192824.698758	1192824.957373	1192825.697514	6.839979e-01	59	none	NaN	NaN
112	6	11	98	kitchen	sun_akchetnepxlcxhsu.tif	1192826.467173	1192826.725767	1192827.465996	7.840952e-01	88	none	NaN	NaN
112	6	12	106	kitchen	sun_awcpdzzznmweyyhv.tif	1192828.235596	1192828.494183	1192829.234400	7.924366e-01	96	none	NaN	NaN
112	6	13	109	kitchen	sun_aypmqwcualkenuoe.tif	1192830.004014	1192830.262602	1192831.002878	6.923394e-01	99	none	NaN	NaN
112	6	14	100	kitchen	sun_amjjdeyrggfqgmom.tif	1192831.772432	1192832.031024	1192832.771283	7.173637e-01	90	none	NaN	NaN
112	6	15	89	kitchen	sun_agzzivivdpnawacl.tif	1192833.540850	1192833.799440	1192834.539595	8.258024e-01	79	none	NaN	NaN
112	6	16	103	kitchen	sun_aunzlwrbjumxhwdj.tif	1192835.300926	1192835.559516	1192836.299682	6.923394e-01	93	none	NaN	NaN
112	6	17	78	kitchen	sun_adgqasybjyktddhj.tif	1192837.069340	1192837.327935	1192838.068097	8.341438e-01	68	none	NaN	NaN
112	6	18	68	kitchen	sun_aaxxjlsuzvqlgylf.tif	1192838.837766	1192839.096354	1192839.836619	8.258024e-01	58	none	NaN	NaN
112	6	19	71	kitchen	sun_abftihopvusyfakt.tif	1192840.606183	1192840.864768	1192841.604884	7.090222e-01	61	none	NaN	NaN
112	6	20	105	kitchen	sun_avszsnwsbuqfgzbn.tif	1192842.374599	1192842.633190	1192843.373307	6.506322e-01	95	37	1192844.233646	0
112	6	21	73	kitchen	sun_abrcnpqqhmjwekyf.tif	1192845.010545	1192845.269133	1192846.009209	7.590709e-01	63	none	NaN	NaN
112	6	22	67	kitchen	sun_aarfiyshqohlwkmo.tif	1192846.778963	1192847.037547	1192847.777610	7.757537e-01	57	none	NaN	NaN
112	6	23	86	kitchen	sun_aggjlwcdjsjcaemh.tif	1192848.547377	1192848.805970	1192849.546052	8.007780e-01	76	none	NaN	NaN
112	6	24	74	kitchen	sun_acfmftudsenhrfhy.tif	1192850.307454	1192850.566049	1192851.306274	6.589736e-01	64	none	NaN	NaN
112	6	25	66	kitchen	sun_aapllqyqlykszopd.tif	1192852.075873	1192852.334463	1192853.074540	7.173637e-01	56	none	NaN	NaN
112	6	26	95	kitchen	sun_aixorpehvfykdynp.tif	1192853.835953	1192854.094542	1192854.834659	7.590709e-01	85	none	NaN	NaN
112	6	27	70	kitchen	sun_abdxkyyxwfskuaqb.tif	1192855.604369	1192855.862960	1192856.603112	8.341438e-01	60	39	1192857.329695	1
112	6	28	75	kitchen	sun_acgtpgfybqjmzeyw.tif	1192858.106848	1192858.365437	1192859.105677	8.424852e-01	65	none	NaN	NaN
112	6	29	94	kitchen	sun_ahywdevtimnqcsln.tif	1192859.875267	1192860.133857	1192860.874044	7.423880e-01	84	none	NaN	NaN
112	6	30	85	kitchen	sun_afuyedyxivkhecmu.tif	1192861.643683	1192861.902271	1192862.642541	7.840952e-01	75	none	NaN	NaN
112	6	31	107	kitchen	sun_axyyrmzcupyhlivc.tif	1192863.412104	1192863.670687	1192864.410781	8.174609e-01	97	none	NaN	NaN
112	6	32	91	kitchen	sun_ahljzhgcdpomplvg.tif	1192865.180522	1192865.439108	1192866.179294	7.257051e-01	81	none	NaN	NaN
112	6	33	96	kitchen	sun_ajcbwwvdlsvjyzje.tif	1192866.948943	1192867.207531	1192867.947627	7.757537e-01	86	39	1192868.665727	1
112	6	34	82	kitchen	sun_aenotlpyftoioydp.tif	1192869.443075	1192869.701667	1192870.441839	7.590709e-01	72	37	1192871.225623	1
112	6	35	102	kitchen	sun_auaiucuqpdausiva.tif	1192872.003943	1192872.262535	1192873.002802	8.007780e-01	92	37	1192873.673473	1
112	6	36	72	kitchen	sun_abpwyqmlzafvklqo.tif	1192874.448031	1192874.706627	1192875.446699	7.257051e-01	62	none	NaN	NaN
112	6	37	84	kitchen	sun_aexklacwqwezaorf.tif	1192876.216453	1192876.475043	1192877.215170	7.674123e-01	74	39	1192877.953813	1
112	6	38	101	kitchen	sun_aqeaevwwwjoqhzvl.tif	1192878.727275	1192878.985864	1192879.726144	7.674123e-01	91	none	NaN	NaN
112	6	39	110	kitchen	sun_azmutvzbxypaceni.tif	1192880.495697	1192880.754276	1192881.494505	6.589736e-01	100	none	NaN	NaN
112	6	40	83	kitchen	sun_aeqdocilnnpuvuhx.tif	1192882.264112	1192882.522698	1192883.262899	8.007780e-01	73	none	NaN	NaN
112	6	41	77	kitchen	sun_acxkpeoqbwcxfvip.tif	1192884.032531	1192884.291118	1192885.031273	8.258024e-01	67	none	NaN	NaN
112	6	42	63	kitchen	labelme_rykdqxenmhulbdn.tif	1192885.800945	1192886.059535	1192886.799738	6.506322e-01	53	none	NaN	NaN
112	6	43	80	kitchen	sun_aegoxogugdkwpmpj.tif	1192887.569360	1192887.827954	1192888.568135	7.090222e-01	70	none	NaN	NaN
112	6	44	79	kitchen	sun_admlmbcdswaszruo.tif	1192889.337780	1192889.596368	1192890.336561	7.924366e-01	69	37	1192891.097828	1
112	6	45	61	kitchen	labelme_brsyyvweiuaazfr.tif	1192891.873629	1192892.132219	1192892.872354	7.006808e-01	51	none	NaN	NaN
112	6	46	97	kitchen	sun_ajkqhtgcbgpcwrwn.tif	1192893.642045	1192893.900634	1192894.640804	7.090222e-01	87	none	NaN	NaN
112	6	47	88	kitchen	sun_agubuxuukhzyzpdp.tif	1192895.410459	1192895.669047	1192896.409227	7.340465e-01	78	none	NaN	NaN
112	6	48	104	kitchen	sun_auticobqsbwgoppi.tif	1192897.178879	1192897.437475	1192898.177572	7.757537e-01	94	none	NaN	NaN
112	6	49	76	kitchen	sun_acwjdupvyjsugpay.tif	1192898.947300	1192899.205891	1192899.946012	7.590709e-01	66	none	NaN	NaN
112	6	50	92	kitchen	sun_ahpczsiumwwocjkv.tif	1192900.715719	1192900.974307	1192901.714494	7.173637e-01	82	none	NaN	NaN
112	6	51	105	kitchen	sun_avszsnwsbuqfgzbn.tif	1192902.484135	1192902.742728	1192903.482944	8.258024e-01	95	none	NaN	NaN
112	6	52	92	kitchen	sun_ahpczsiumwwocjkv.tif	1192904.252554	1192904.511145	1192905.251225	8.341438e-01	82	none	NaN	NaN
112	6	53	83	kitchen	sun_aeqdocilnnpuvuhx.tif	1192906.012632	1192906.271223	1192907.011415	7.340465e-01	73	none	NaN	NaN
112	6	54	94	kitchen	sun_ahywdevtimnqcsln.tif	1192907.781051	1192908.039641	1192908.779768	8.091195e-01	84	none	NaN	NaN
112	6	55	101	kitchen	sun_aqeaevwwwjoqhzvl.tif	1192909.549469	1192909.808063	1192910.548303	7.006808e-01	91	none	NaN	NaN
112	6	56	81	kitchen	sun_aehawpgmrlhlvcow.tif	1192911.317888	1192911.576476	1192912.316621	6.839979e-01	71	none	NaN	NaN
112	6	57	87	kitchen	sun_agorklincwxrdtga.tif	1192913.086305	1192913.344894	1192914.085003	8.091195e-01	77	none	NaN	NaN
112	6	58	89	kitchen	sun_agzzivivdpnawacl.tif	1192914.854726	1192915.113312	1192915.853454	7.257051e-01	79	none	NaN	NaN
112	6	59	74	kitchen	sun_acfmftudsenhrfhy.tif	1192916.623145	1192916.881728	1192917.621908	8.007780e-01	64	none	NaN	NaN
112	6	60	67	kitchen	sun_aarfiyshqohlwkmo.tif	1192918.391564	1192918.650151	1192919.390379	6.923394e-01	57	none	NaN	NaN
112	6	61	63	kitchen	labelme_rykdqxenmhulbdn.tif	1192920.159981	1192920.418568	1192921.158793	6.673150e-01	53	none	NaN	NaN
112	6	62	84	kitchen	sun_aexklacwqwezaorf.tif	1192921.928396	1192922.186987	1192922.927265	6.589736e-01	74	none	NaN	NaN
112	6	63	103	kitchen	sun_aunzlwrbjumxhwdj.tif	1192923.696814	1192923.955403	1192924.695574	6.923394e-01	93	37	1192925.417766	1
112	6	64	91	kitchen	sun_ahljzhgcdpomplvg.tif	1192926.190955	1192926.449542	1192927.189732	6.923394e-01	81	none	NaN	NaN
112	6	65	62	kitchen	labelme_kxvouciolcpqplr.tif	1192927.959373	1192928.217956	1192928.958115	7.423880e-01	52	39	1192929.841813	1
112	6	66	106	kitchen	sun_awcpdzzznmweyyhv.tif	1192930.611998	1192930.870587	1192931.610647	6.673150e-01	96	none	NaN	NaN
112	6	67	68	kitchen	sun_aaxxjlsuzvqlgylf.tif	1192932.380420	1192932.639004	1192933.379195	7.507294e-01	58	none	NaN	NaN
112	6	68	65	kitchen	sun_aamedkxepzlwuxes.tif	1192934.148836	1192934.407422	1192935.147699	7.340465e-01	55	none	NaN	NaN
112	6	69	96	kitchen	sun_ajcbwwvdlsvjyzje.tif	1192935.917256	1192936.175841	1192936.916069	7.006808e-01	86	none	NaN	NaN
112	6	70	110	kitchen	sun_azmutvzbxypaceni.tif	1192937.685675	1192937.944263	1192938.684512	8.424852e-01	100	none	NaN	NaN
112	6	71	77	kitchen	sun_acxkpeoqbwcxfvip.tif	1192939.454088	1192939.712674	1192940.452780	8.508267e-01	67	39	1192941.281876	1
112	6	72	86	kitchen	sun_aggjlwcdjsjcaemh.tif	1192942.056665	1192942.315255	1192943.055399	7.924366e-01	76	none	NaN	NaN
112	6	73	64	kitchen	sun_aadbddgrdsjugojn.tif	1192943.825085	1192944.083675	1192944.823815	6.756565e-01	54	none	NaN	NaN
112	6	74	76	kitchen	sun_acwjdupvyjsugpay.tif	1192945.593507	1192945.852095	1192946.592271	8.174609e-01	66	none	NaN	NaN
112	6	75	104	kitchen	sun_auticobqsbwgoppi.tif	1192947.361923	1192947.620509	1192948.360692	8.508267e-01	94	none	NaN	NaN
112	6	76	95	kitchen	sun_aixorpehvfykdynp.tif	1192949.130337	1192949.388932	1192950.129021	7.507294e-01	85	none	NaN	NaN
112	6	77	109	kitchen	sun_aypmqwcualkenuoe.tif	1192950.898758	1192951.157348	1192951.897568	8.341438e-01	99	none	NaN	NaN
112	6	78	108	kitchen	sun_aymvwlarqodbwuoc.tif	1192952.667177	1192952.925767	1192953.665930	6.756565e-01	98	37	1192954.785760	1
112	6	79	100	kitchen	sun_amjjdeyrggfqgmom.tif	1192955.561713	1192955.820305	1192956.560506	7.590709e-01	90	none	NaN	NaN
112	6	80	99	kitchen	sun_akcjzhbbjlbogpdi.tif	1192957.330127	1192957.588716	1192958.328893	6.589736e-01	89	none	NaN	NaN
112	6	81	70	kitchen	sun_abdxkyyxwfskuaqb.tif	1192959.098545	1192959.357135	1192960.097272	7.173637e-01	60	none	NaN	NaN
112	6	82	75	kitchen	sun_acgtpgfybqjmzeyw.tif	1192960.866963	1192961.125555	1192961.865643	6.673150e-01	65	39	1192962.777579	0
112	6	83	90	kitchen	sun_ahdycvpopffkzzsu.tif	1192963.552961	1192963.811553	1192964.551698	6.756565e-01	80	none	NaN	NaN
112	6	84	97	kitchen	sun_ajkqhtgcbgpcwrwn.tif	1192965.321381	1192965.579965	1192966.320127	6.839979e-01	87	none	NaN	NaN
112	6	85	88	kitchen	sun_agubuxuukhzyzpdp.tif	1192967.089795	1192967.348386	1192968.088451	6.506322e-01	78	none	NaN	NaN
112	6	86	80	kitchen	sun_aegoxogugdkwpmpj.tif	1192968.849874	1192969.108461	1192969.848685	8.091195e-01	70	none	NaN	NaN
112	6	87	82	kitchen	sun_aenotlpyftoioydp.tif	1192970.618290	1192970.876877	1192971.616967	7.257051e-01	72	none	NaN	NaN
112	6	88	102	kitchen	sun_auaiucuqpdausiva.tif	1192972.386709	1192972.645297	1192973.385486	7.924366e-01	92	39	1192974.273703	1
112	6	89	66	kitchen	sun_aapllqyqlykszopd.tif	1192975.047675	1192975.306268	1192976.046427	7.840952e-01	56	none	NaN	NaN
112	6	90	78	kitchen	sun_adgqasybjyktddhj.tif	1192976.816093	1192977.074682	1192977.814840	8.091195e-01	68	none	NaN	NaN
112	6	91	61	kitchen	labelme_brsyyvweiuaazfr.tif	1192978.584513	1192978.843106	1192979.583172	8.174609e-01	51	none	NaN	NaN
112	6	92	79	kitchen	sun_admlmbcdswaszruo.tif	1192980.352936	1192980.611524	1192981.351638	8.424852e-01	69	37	1192982.145821	1
112	6	93	73	kitchen	sun_abrcnpqqhmjwekyf.tif	1192982.922148	1192983.180736	1192983.920820	7.674123e-01	63	none	NaN	NaN
112	6	94	69	kitchen	sun_abdenxonkemggwsq.tif	1192984.690564	1192984.949151	1192985.689393	6.756565e-01	59	none	NaN	NaN
112	6	95	98	kitchen	sun_akchetnepxlcxhsu.tif	1192986.458980	1192986.717574	1192987.457786	7.757537e-01	88	none	NaN	NaN
112	6	96	107	kitchen	sun_axyyrmzcupyhlivc.tif	1192988.227400	1192988.485988	1192989.226091	7.840952e-01	97	none	NaN	NaN
112	6	97	71	kitchen	sun_abftihopvusyfakt.tif	1192989.995815	1192990.254408	1192990.994597	7.507294e-01	61	none	NaN	NaN
112	6	98	85	kitchen	sun_afuyedyxivkhecmu.tif	1192991.764239	1192992.022828	1192992.762998	7.340465e-01	75	none	NaN	NaN
112	6	99	93	kitchen	sun_ahspylgoovwmwvgk.tif	1192993.532652	1192993.791245	1192994.531330	7.423880e-01	83	none	NaN	NaN
112	6	100	72	kitchen	sun_abpwyqmlzafvklqo.tif	1192995.301072	1192995.559663	1192996.299936	7.423880e-01	62	none	NaN	NaN
112	7	1	30	bathroom	sun_ajlawzvmubibwbpy.tif	1193002.491529	1193002.750115	1193003.440228	6.673150e-01	20	37	1193004.137682	1
112	7	2	24	bathroom	sun_agrwbmhcpmfuwmsg.tif	1193004.910592	1193005.169183	1193005.859406	7.423880e-01	14	none	NaN	NaN
112	7	3	18	bathroom	sun_acgyywnybuveqsro.tif	1193006.628961	1193006.887549	1193007.577777	7.674123e-01	8	none	NaN	NaN
112	7	4	11	bathroom	labelme_sfxiulhjbhlyiyt.tif	1193008.347331	1193008.605923	1193009.296062	7.507294e-01	1	none	NaN	NaN
112	7	5	36	bathroom	sun_ambriybtogmepttm.tif	1193010.065699	1193010.324290	1193011.014443	7.840952e-01	26	none	NaN	NaN
112	7	6	59	bathroom	sun_axyrejkiiaqiurjk.tif	1193011.784064	1193012.042656	1193012.732833	8.007780e-01	49	39	1193013.657607	1
112	7	7	41	bathroom	sun_aoybiabnpadelefl.tif	1193014.428349	1193014.686940	1193015.377151	7.006808e-01	31	none	NaN	NaN
112	7	8	27	bathroom	sun_ahcvzmoyaycdoftf.tif	1193016.146722	1193016.405312	1193017.095522	7.340465e-01	17	none	NaN	NaN
112	7	9	33	bathroom	sun_aljolscmmzydegqp.tif	1193017.865087	1193018.123681	1193018.813809	7.423880e-01	23	none	NaN	NaN
112	7	10	19	bathroom	sun_aclfzgynxzxlbepz.tif	1193019.583462	1193019.842049	1193020.532277	6.756565e-01	9	none	NaN	NaN
112	7	11	50	bathroom	sun_aspsyogrekjtfozg.tif	1193021.301828	1193021.560413	1193022.250579	7.507294e-01	40	none	NaN	NaN
112	7	12	25	bathroom	sun_agyqfjcfkdcydepw.tif	1193023.020195	1193023.278784	1193023.968831	6.506322e-01	15	37	1193024.793821	1
112	7	13	48	bathroom	sun_aqrpegblszgcoujh.tif	1193025.564385	1193025.822972	1193026.513190	8.007780e-01	38	none	NaN	NaN
112	7	14	52	bathroom	sun_aunuadmjocsddsrl.tif	1193027.282749	1193027.541343	1193028.231423	8.341438e-01	42	none	NaN	NaN
112	7	15	45	bathroom	sun_apkxzenqapsujocq.tif	1193029.001120	1193029.259712	1193029.949936	7.924366e-01	35	none	NaN	NaN
112	7	16	54	bathroom	sun_auzqhkafidnkrwmo.tif	1193030.719490	1193030.978078	1193031.668108	6.839979e-01	44	none	NaN	NaN
112	7	17	43	bathroom	sun_apjevzvycyhuqghb.tif	1193032.437858	1193032.696447	1193033.386630	6.923394e-01	33	39	1193039.457699	0
112	7	18	23	bathroom	sun_aghyqhbptboemmoq.tif	1193040.228910	1193040.487500	1193041.177712	7.590709e-01	13	none	NaN	NaN
112	7	19	57	bathroom	sun_axldvoqbuvuggfmq.tif	1193041.947277	1193042.205866	1193042.896057	7.507294e-01	47	none	NaN	NaN
112	7	20	13	bathroom	sun_aavhrsfjbserjtht.tif	1193043.665645	1193043.924235	1193044.614335	8.174609e-01	3	none	NaN	NaN
112	7	21	28	bathroom	sun_ahijqszoswveeyji.tif	1193045.384013	1193045.642602	1193046.332699	7.340465e-01	18	39	1193047.417689	1
112	7	22	51	bathroom	sun_atstyziqcmkahyxk.tif	1193048.195129	1193048.453718	1193049.143855	7.257051e-01	41	none	NaN	NaN
112	7	23	55	bathroom	sun_avhrdrntsqrjzccq.tif	1193049.913499	1193050.172092	1193050.862261	7.090222e-01	45	none	NaN	NaN
112	7	24	40	bathroom	sun_aofnryafpsjimzsb.tif	1193051.631866	1193051.890457	1193052.580643	6.923394e-01	30	none	NaN	NaN
112	7	25	44	bathroom	sun_apkruvsevgegsdwp.tif	1193053.350240	1193053.608825	1193054.298929	8.091195e-01	34	none	NaN	NaN
112	7	26	42	bathroom	sun_apeeialkgkuxddgh.tif	1193055.068605	1193055.327200	1193056.017230	8.174609e-01	32	none	NaN	NaN
112	7	27	20	bathroom	sun_afcoljnjfoxjtgja.tif	1193056.786973	1193057.045567	1193057.735759	7.173637e-01	10	none	NaN	NaN
112	7	28	17	bathroom	sun_acegryoqftbzowsg.tif	1193058.505348	1193058.763933	1193059.454125	8.258024e-01	7	none	NaN	NaN
112	7	29	37	bathroom	sun_amzlamotzwfkwjco.tif	1193060.223710	1193060.482306	1193061.172448	6.923394e-01	27	none	NaN	NaN
112	7	30	16	bathroom	sun_acduarbnmmoglmiv.tif	1193061.942083	1193062.200672	1193062.890763	6.839979e-01	6	none	NaN	NaN
112	7	31	34	bathroom	sun_alkosphxlxwjwgjd.tif	1193063.660448	1193063.919037	1193064.609176	8.341438e-01	24	none	NaN	NaN
112	7	32	49	bathroom	sun_asfwthctfqerjvxr.tif	1193065.378819	1193065.637413	1193066.327616	7.674123e-01	39	none	NaN	NaN
112	7	33	31	bathroom	sun_akiytfaagpdsphgz.tif	1193067.097188	1193067.355782	1193068.045917	7.924366e-01	21	none	NaN	NaN
112	7	34	53	bathroom	sun_ausgutylgojavyoq.tif	1193068.815554	1193069.074146	1193069.764253	7.090222e-01	43	39	1193070.729731	1
112	7	35	39	bathroom	sun_anryaplzeujmzfkd.tif	1193071.501549	1193071.760137	1193072.450200	8.424852e-01	29	none	NaN	NaN
112	7	36	21	bathroom	sun_aggnnqpdorgxpvce.tif	1193073.219917	1193073.478510	1193074.168648	7.924366e-01	11	37	1193076.017919	0
112	7	37	56	bathroom	sun_awnqiikzaispgmwo.tif	1193076.790119	1193077.048712	1193077.738764	7.340465e-01	46	none	NaN	NaN
112	7	38	14	bathroom	sun_abapwbhyhkfixyex.tif	1193078.508490	1193078.767081	1193079.457154	8.174609e-01	4	none	NaN	NaN
112	7	39	60	bathroom	sun_azqyogdvyhahyram.tif	1193080.218516	1193080.477107	1193081.167228	7.590709e-01	50	none	NaN	NaN
112	7	40	38	bathroom	sun_anhioqovhscjqqwb.tif	1193081.936885	1193082.195477	1193082.885651	8.258024e-01	28	none	NaN	NaN
112	7	41	47	bathroom	sun_apynckhmoftszqoq.tif	1193083.655255	1193083.913844	1193084.603859	6.506322e-01	37	none	NaN	NaN
112	7	42	12	bathroom	sun_aapitsgbtktqubfy.tif	1193085.373627	1193085.632211	1193086.322346	8.007780e-01	2	none	NaN	NaN
112	7	43	22	bathroom	sun_agguqiubmwhqqunb.tif	1193087.091989	1193087.350578	1193088.040746	7.423880e-01	12	37	1193089.073780	1
112	7	44	46	bathroom	sun_apmqjbnwghzuhhzh.tif	1193089.844714	1193090.103308	1193090.793499	8.341438e-01	36	none	NaN	NaN
112	7	45	58	bathroom	sun_axxbkopsgyouuebh.tif	1193091.563088	1193091.821673	1193092.511734	8.258024e-01	48	none	NaN	NaN
112	7	46	35	bathroom	sun_alotolagknyrgtsk.tif	1193093.281459	1193093.540046	1193094.230116	8.424852e-01	25	none	NaN	NaN
112	7	47	26	bathroom	sun_ahaulkltgpkeeemi.tif	1193094.999826	1193095.258418	1193095.948452	8.091195e-01	16	none	NaN	NaN
112	7	48	29	bathroom	sun_ahqjwnzgolcaoidx.tif	1193096.718193	1193096.976788	1193097.666992	6.673150e-01	19	none	NaN	NaN
112	7	49	32	bathroom	sun_aleqenyvunhactkl.tif	1193098.436563	1193098.695153	1193099.385348	7.590709e-01	22	none	NaN	NaN
112	7	50	15	bathroom	sun_abjtwfukuwddzted.tif	1193100.154930	1193100.413522	1193101.103552	6.589736e-01	5	none	NaN	NaN
112	7	51	16	bathroom	sun_acduarbnmmoglmiv.tif	1193101.873300	1193102.131887	1193102.822053	7.173637e-01	6	none	NaN	NaN
112	7	52	53	bathroom	sun_ausgutylgojavyoq.tif	1193103.591669	1193103.850255	1193104.540409	8.341438e-01	43	none	NaN	NaN
112	7	53	23	bathroom	sun_aghyqhbptboemmoq.tif	1193105.310034	1193105.568630	1193106.258792	7.757537e-01	13	none	NaN	NaN
112	7	54	17	bathroom	sun_acegryoqftbzowsg.tif	1193107.028408	1193107.286999	1193107.977089	6.673150e-01	7	none	NaN	NaN
112	7	55	32	bathroom	sun_aleqenyvunhactkl.tif	1193108.746775	1193109.005364	1193109.695596	8.424852e-01	22	37	1193110.689869	1
112	7	56	37	bathroom	sun_amzlamotzwfkwjco.tif	1193111.466135	1193111.724725	1193112.414794	8.091195e-01	27	none	NaN	NaN
112	7	57	59	bathroom	sun_axyrejkiiaqiurjk.tif	1193113.184501	1193113.443090	1193114.133249	7.507294e-01	49	39	1193115.321781	1
112	7	58	41	bathroom	sun_aoybiabnpadelefl.tif	1193116.095719	1193116.354305	1193117.044342	7.006808e-01	31	none	NaN	NaN
112	7	59	26	bathroom	sun_ahaulkltgpkeeemi.tif	1193117.814090	1193118.072678	1193118.762951	8.091195e-01	16	none	NaN	NaN
112	7	60	55	bathroom	sun_avhrdrntsqrjzccq.tif	1193119.532456	1193119.791046	1193120.481223	6.756565e-01	45	none	NaN	NaN
112	7	61	40	bathroom	sun_aofnryafpsjimzsb.tif	1193121.250827	1193121.509415	1193122.199554	7.340465e-01	30	none	NaN	NaN
112	7	62	33	bathroom	sun_aljolscmmzydegqp.tif	1193122.969195	1193123.227785	1193123.917856	6.923394e-01	23	none	NaN	NaN
112	7	63	24	bathroom	sun_agrwbmhcpmfuwmsg.tif	1193124.687563	1193124.946152	1193125.636269	7.590709e-01	14	none	NaN	NaN
112	7	64	39	bathroom	sun_anryaplzeujmzfkd.tif	1193126.405935	1193126.664526	1193127.354606	8.508267e-01	29	none	NaN	NaN
112	7	65	38	bathroom	sun_anhioqovhscjqqwb.tif	1193128.124301	1193128.382890	1193129.073005	6.589736e-01	28	none	NaN	NaN
112	7	66	15	bathroom	sun_abjtwfukuwddzted.tif	1193129.842670	1193130.101257	1193130.791293	6.756565e-01	5	none	NaN	NaN
112	7	67	42	bathroom	sun_apeeialkgkuxddgh.tif	1193131.561039	1193131.819630	1193132.509849	7.840952e-01	32	none	NaN	NaN
112	7	68	11	bathroom	labelme_sfxiulhjbhlyiyt.tif	1193133.279403	1193133.537995	1193134.228014	8.508267e-01	1	none	NaN	NaN
112	7	69	12	bathroom	sun_aapitsgbtktqubfy.tif	1193134.997776	1193135.256363	1193135.946464	6.839979e-01	2	none	NaN	NaN
112	7	70	43	bathroom	sun_apjevzvycyhuqghb.tif	1193136.716146	1193136.974737	1193137.664809	7.257051e-01	33	none	NaN	NaN
112	7	71	47	bathroom	sun_apynckhmoftszqoq.tif	1193138.434511	1193138.693103	1193139.383297	8.007780e-01	37	37	1193140.257866	1
112	7	72	34	bathroom	sun_alkosphxlxwjwgjd.tif	1193141.028748	1193141.287336	1193141.977557	7.590709e-01	24	none	NaN	NaN
112	7	73	30	bathroom	sun_ajlawzvmubibwbpy.tif	1193142.747116	1193143.005707	1193143.695838	7.173637e-01	20	none	NaN	NaN
112	7	74	56	bathroom	sun_awnqiikzaispgmwo.tif	1193144.465488	1193144.724080	1193145.414273	6.589736e-01	46	none	NaN	NaN
112	7	75	36	bathroom	sun_ambriybtogmepttm.tif	1193146.183856	1193146.442450	1193147.132665	8.174609e-01	26	none	NaN	NaN
112	7	76	46	bathroom	sun_apmqjbnwghzuhhzh.tif	1193147.902223	1193148.160816	1193148.850850	6.673150e-01	36	none	NaN	NaN
112	7	77	14	bathroom	sun_abapwbhyhkfixyex.tif	1193149.620593	1193149.879182	1193150.569333	7.757537e-01	4	none	NaN	NaN
112	7	78	19	bathroom	sun_aclfzgynxzxlbepz.tif	1193151.338962	1193151.597577	1193152.287698	6.923394e-01	9	none	NaN	NaN
112	7	79	25	bathroom	sun_agyqfjcfkdcydepw.tif	1193153.057328	1193153.315919	1193154.006005	7.006808e-01	15	none	NaN	NaN
112	7	80	13	bathroom	sun_aavhrsfjbserjtht.tif	1193154.775701	1193155.034291	1193155.724345	7.257051e-01	3	none	NaN	NaN
112	7	81	60	bathroom	sun_azqyogdvyhahyram.tif	1193156.494069	1193156.752658	1193157.442890	7.423880e-01	50	none	NaN	NaN
112	7	82	50	bathroom	sun_aspsyogrekjtfozg.tif	1193158.212438	1193158.471029	1193159.161212	6.506322e-01	40	39	1193160.161487	1
112	7	83	22	bathroom	sun_agguqiubmwhqqunb.tif	1193160.940141	1193161.198728	1193161.888852	6.589736e-01	12	none	NaN	NaN
112	7	84	20	bathroom	sun_afcoljnjfoxjtgja.tif	1193162.658509	1193162.917093	1193163.607199	8.258024e-01	10	none	NaN	NaN
112	7	85	18	bathroom	sun_acgyywnybuveqsro.tif	1193164.376875	1193164.635462	1193165.325685	6.756565e-01	8	none	NaN	NaN
112	7	86	58	bathroom	sun_axxbkopsgyouuebh.tif	1193166.095247	1193166.353833	1193167.044053	7.757537e-01	48	none	NaN	NaN
112	7	87	35	bathroom	sun_alotolagknyrgtsk.tif	1193167.813613	1193168.072204	1193168.762358	7.257051e-01	25	none	NaN	NaN
112	7	88	44	bathroom	sun_apkruvsevgegsdwp.tif	1193169.531982	1193169.790572	1193170.480660	7.006808e-01	34	none	NaN	NaN
112	7	89	48	bathroom	sun_aqrpegblszgcoujh.tif	1193171.250350	1193171.508941	1193172.199047	7.840952e-01	38	none	NaN	NaN
112	7	90	45	bathroom	sun_apkxzenqapsujocq.tif	1193172.968718	1193173.227307	1193173.917519	7.840952e-01	35	none	NaN	NaN
112	7	91	57	bathroom	sun_axldvoqbuvuggfmq.tif	1193174.687087	1193174.945680	1193175.635789	7.090222e-01	47	37	1193177.281867	0
112	7	92	51	bathroom	sun_atstyziqcmkahyxk.tif	1193178.057094	1193178.315678	1193179.005821	7.173637e-01	41	none	NaN	NaN
112	7	93	31	bathroom	sun_akiytfaagpdsphgz.tif	1193179.775462	1193180.034051	1193180.724152	7.924366e-01	21	none	NaN	NaN
112	7	94	29	bathroom	sun_ahqjwnzgolcaoidx.tif	1193181.493829	1193181.752419	1193182.442504	8.258024e-01	19	none	NaN	NaN
112	7	95	54	bathroom	sun_auzqhkafidnkrwmo.tif	1193183.212203	1193183.470790	1193184.160973	8.424852e-01	44	37	1193184.897749	1
112	7	96	49	bathroom	sun_asfwthctfqerjvxr.tif	1193185.672973	1193185.931563	1193186.621604	7.757537e-01	39	none	NaN	NaN
112	7	97	52	bathroom	sun_aunuadmjocsddsrl.tif	1193187.391338	1193187.649924	1193188.339997	7.674123e-01	42	none	NaN	NaN
112	7	98	28	bathroom	sun_ahijqszoswveeyji.tif	1193189.109704	1193189.368296	1193190.058322	6.839979e-01	18	none	NaN	NaN
112	7	99	21	bathroom	sun_aggnnqpdorgxpvce.tif	1193190.828074	1193191.086663	1193191.776742	7.090222e-01	11	39	1193193.345709	0
112	7	100	27	bathroom	sun_ahcvzmoyaycdoftf.tif	1193194.123002	1193194.381591	1193195.071663	7.674123e-01	17	none	NaN	NaN
112	8	1	66	kitchen	sun_aapllqyqlykszopd.tif	1193206.093200	1193206.351783	1193207.033480	6.756565e-01	56	none	NaN	NaN
112	8	2	91	kitchen	sun_ahljzhgcdpomplvg.tif	1193207.803226	1193208.061808	1193208.743550	7.590709e-01	81	37	1193209.721623	1
112	8	3	104	kitchen	sun_auticobqsbwgoppi.tif	1193210.497553	1193210.756147	1193211.437971	8.508267e-01	94	none	NaN	NaN
112	8	4	109	kitchen	sun_aypmqwcualkenuoe.tif	1193212.207586	1193212.466172	1193213.147953	7.757537e-01	99	none	NaN	NaN
112	8	5	81	kitchen	sun_aehawpgmrlhlvcow.tif	1193213.917610	1193214.176206	1193214.858006	7.090222e-01	71	37	1193215.529894	1
112	8	6	101	kitchen	sun_aqeaevwwwjoqhzvl.tif	1193216.303310	1193216.561900	1193217.243591	7.257051e-01	91	none	NaN	NaN
112	8	7	85	kitchen	sun_afuyedyxivkhecmu.tif	1193218.013334	1193218.271929	1193218.953794	8.258024e-01	75	none	NaN	NaN
112	8	8	83	kitchen	sun_aeqdocilnnpuvuhx.tif	1193219.723362	1193219.981951	1193220.663789	6.923394e-01	73	none	NaN	NaN
112	8	9	80	kitchen	sun_aegoxogugdkwpmpj.tif	1193221.433392	1193221.691979	1193222.373785	8.091195e-01	70	none	NaN	NaN
112	8	10	86	kitchen	sun_aggjlwcdjsjcaemh.tif	1193223.143414	1193223.402009	1193224.083748	6.673150e-01	76	39	1193225.657981	1
112	8	11	65	kitchen	sun_aamedkxepzlwuxes.tif	1193226.430005	1193226.688598	1193227.370425	7.006808e-01	55	none	NaN	NaN
112	8	12	98	kitchen	sun_akchetnepxlcxhsu.tif	1193228.140030	1193228.398622	1193229.080392	7.006808e-01	88	none	NaN	NaN
112	8	13	77	kitchen	sun_acxkpeoqbwcxfvip.tif	1193229.850061	1193230.108648	1193230.790361	8.007780e-01	67	none	NaN	NaN
112	8	14	96	kitchen	sun_ajcbwwvdlsvjyzje.tif	1193231.560086	1193231.818676	1193232.500456	8.258024e-01	86	none	NaN	NaN
112	8	15	84	kitchen	sun_aexklacwqwezaorf.tif	1193233.270112	1193233.528700	1193234.210575	7.257051e-01	74	37	1193235.697662	0
112	8	16	79	kitchen	sun_admlmbcdswaszruo.tif	1193236.473287	1193236.731876	1193237.413565	7.507294e-01	69	none	NaN	NaN
112	8	17	89	kitchen	sun_agzzivivdpnawacl.tif	1193238.183310	1193238.441903	1193239.123651	8.424852e-01	79	37	1193239.769628	1
112	8	18	92	kitchen	sun_ahpczsiumwwocjkv.tif	1193240.543983	1193240.802573	1193241.484300	8.424852e-01	82	none	NaN	NaN
112	8	19	93	kitchen	sun_ahspylgoovwmwvgk.tif	1193242.254013	1193242.512597	1193243.194313	7.757537e-01	83	39	1193243.977689	1
112	8	20	87	kitchen	sun_agorklincwxrdtga.tif	1193244.748152	1193245.006740	1193245.688434	7.840952e-01	77	37	1193246.577788	1
112	8	21	68	kitchen	sun_aaxxjlsuzvqlgylf.tif	1193247.350729	1193247.609319	1193248.291184	6.839979e-01	58	none	NaN	NaN
112	8	22	76	kitchen	sun_acwjdupvyjsugpay.tif	1193249.060757	1193249.319340	1193250.001070	6.589736e-01	66	none	NaN	NaN
112	8	23	67	kitchen	sun_aarfiyshqohlwkmo.tif	1193250.770779	1193251.029371	1193251.711049	6.589736e-01	57	none	NaN	NaN
112	8	24	97	kitchen	sun_ajkqhtgcbgpcwrwn.tif	1193252.480813	1193252.739397	1193253.421227	7.507294e-01	87	none	NaN	NaN
112	8	25	110	kitchen	sun_azmutvzbxypaceni.tif	1193254.190834	1193254.449424	1193255.131186	7.173637e-01	100	none	NaN	NaN
112	8	26	105	kitchen	sun_avszsnwsbuqfgzbn.tif	1193255.900862	1193256.159454	1193256.841324	7.840952e-01	95	none	NaN	NaN
112	8	27	70	kitchen	sun_abdxkyyxwfskuaqb.tif	1193257.610891	1193257.869478	1193258.551219	8.508267e-01	60	none	NaN	NaN
112	8	28	69	kitchen	sun_abdenxonkemggwsq.tif	1193259.320924	1193259.579509	1193260.261211	7.507294e-01	59	none	NaN	NaN
112	8	29	64	kitchen	sun_aadbddgrdsjugojn.tif	1193261.030946	1193261.289536	1193261.971309	8.424852e-01	54	none	NaN	NaN
112	8	30	72	kitchen	sun_abpwyqmlzafvklqo.tif	1193262.740980	1193262.999557	1193263.681350	7.674123e-01	62	none	NaN	NaN
112	8	31	71	kitchen	sun_abftihopvusyfakt.tif	1193264.451002	1193264.709592	1193265.391358	7.590709e-01	61	none	NaN	NaN
112	8	32	108	kitchen	sun_aymvwlarqodbwuoc.tif	1193266.161023	1193266.419614	1193267.101395	8.341438e-01	98	none	NaN	NaN
112	8	33	102	kitchen	sun_auaiucuqpdausiva.tif	1193267.871055	1193268.129645	1193268.811526	7.340465e-01	92	none	NaN	NaN
112	8	34	75	kitchen	sun_acgtpgfybqjmzeyw.tif	1193269.581080	1193269.839668	1193270.521516	7.924366e-01	65	none	NaN	NaN
112	8	35	100	kitchen	sun_amjjdeyrggfqgmom.tif	1193271.291108	1193271.549694	1193272.231464	8.258024e-01	90	none	NaN	NaN
112	8	36	74	kitchen	sun_acfmftudsenhrfhy.tif	1193273.001133	1193273.259723	1193273.941587	7.674123e-01	64	none	NaN	NaN
112	8	37	73	kitchen	sun_abrcnpqqhmjwekyf.tif	1193274.711164	1193274.969754	1193275.651538	8.007780e-01	63	none	NaN	NaN
112	8	38	94	kitchen	sun_ahywdevtimnqcsln.tif	1193276.421186	1193276.679781	1193277.361525	8.174609e-01	84	none	NaN	NaN
112	8	39	106	kitchen	sun_awcpdzzznmweyyhv.tif	1193278.131218	1193278.389803	1193279.071580	6.923394e-01	96	none	NaN	NaN
112	8	40	103	kitchen	sun_aunzlwrbjumxhwdj.tif	1193279.841241	1193280.099832	1193280.781682	7.173637e-01	93	none	NaN	NaN
112	8	41	99	kitchen	sun_akcjzhbbjlbogpdi.tif	1193281.551271	1193281.809859	1193282.491565	7.423880e-01	89	none	NaN	NaN
112	8	42	63	kitchen	labelme_rykdqxenmhulbdn.tif	1193283.261299	1193283.519891	1193284.201678	8.258024e-01	53	none	NaN	NaN
112	8	43	61	kitchen	labelme_brsyyvweiuaazfr.tif	1193284.971321	1193285.229913	1193285.911587	7.507294e-01	51	none	NaN	NaN
112	8	44	88	kitchen	sun_agubuxuukhzyzpdp.tif	1193286.681352	1193286.939945	1193287.621782	7.590709e-01	78	none	NaN	NaN
112	8	45	95	kitchen	sun_aixorpehvfykdynp.tif	1193288.391378	1193288.649970	1193289.331675	7.090222e-01	85	none	NaN	NaN
112	8	46	62	kitchen	labelme_kxvouciolcpqplr.tif	1193290.101410	1193290.359996	1193291.042466	7.840952e-01	52	none	NaN	NaN
112	8	47	78	kitchen	sun_adgqasybjyktddhj.tif	1193291.811434	1193292.070027	1193292.751841	8.424852e-01	68	none	NaN	NaN
112	8	48	82	kitchen	sun_aenotlpyftoioydp.tif	1193293.521459	1193293.780051	1193294.461892	6.756565e-01	72	37	1193295.833871	1
112	8	49	90	kitchen	sun_ahdycvpopffkzzsu.tif	1193296.607849	1193296.866444	1193297.548253	7.423880e-01	80	none	NaN	NaN
112	8	50	107	kitchen	sun_axyyrmzcupyhlivc.tif	1193298.317877	1193298.576466	1193299.258275	6.839979e-01	97	none	NaN	NaN
112	8	51	109	kitchen	sun_aypmqwcualkenuoe.tif	1193300.027905	1193300.286490	1193300.968313	7.757537e-01	99	none	NaN	NaN
112	8	52	75	kitchen	sun_acgtpgfybqjmzeyw.tif	1193301.737930	1193301.996522	1193302.678219	7.173637e-01	65	none	NaN	NaN
112	8	53	76	kitchen	sun_acwjdupvyjsugpay.tif	1193303.447960	1193303.706548	1193304.388406	6.756565e-01	66	none	NaN	NaN
112	8	54	66	kitchen	sun_aapllqyqlykszopd.tif	1193305.157983	1193305.416576	1193306.098404	6.506322e-01	56	none	NaN	NaN
112	8	55	107	kitchen	sun_axyyrmzcupyhlivc.tif	1193306.868017	1193307.126601	1193307.808305	7.006808e-01	97	37	1193308.609754	1
112	8	56	64	kitchen	sun_aadbddgrdsjugojn.tif	1193309.387171	1193309.645765	1193310.327535	8.258024e-01	54	37	1193311.217718	1
112	8	57	101	kitchen	sun_aqeaevwwwjoqhzvl.tif	1193311.989755	1193312.248343	1193312.930065	6.923394e-01	91	none	NaN	NaN
112	8	58	79	kitchen	sun_admlmbcdswaszruo.tif	1193313.699782	1193313.958362	1193314.640198	7.257051e-01	69	none	NaN	NaN
112	8	59	61	kitchen	labelme_brsyyvweiuaazfr.tif	1193315.409809	1193315.668396	1193316.350174	7.590709e-01	51	none	NaN	NaN
112	8	60	92	kitchen	sun_ahpczsiumwwocjkv.tif	1193317.119836	1193317.378424	1193318.060168	7.590709e-01	82	none	NaN	NaN
112	8	61	63	kitchen	labelme_rykdqxenmhulbdn.tif	1193318.829857	1193319.088450	1193319.770226	7.340465e-01	53	none	NaN	NaN
112	8	62	93	kitchen	sun_ahspylgoovwmwvgk.tif	1193320.539891	1193320.798478	1193321.480281	7.257051e-01	83	none	NaN	NaN
112	8	63	106	kitchen	sun_awcpdzzznmweyyhv.tif	1193322.249915	1193322.508507	1193323.190346	6.923394e-01	96	none	NaN	NaN
112	8	64	83	kitchen	sun_aeqdocilnnpuvuhx.tif	1193323.959947	1193324.218523	1193324.900368	6.839979e-01	73	none	NaN	NaN
112	8	65	70	kitchen	sun_abdxkyyxwfskuaqb.tif	1193325.669968	1193325.928557	1193326.610447	7.006808e-01	60	none	NaN	NaN
112	8	66	84	kitchen	sun_aexklacwqwezaorf.tif	1193327.379997	1193327.638588	1193328.320279	7.757537e-01	74	none	NaN	NaN
112	8	67	78	kitchen	sun_adgqasybjyktddhj.tif	1193329.090024	1193329.348615	1193330.030427	7.924366e-01	68	none	NaN	NaN
112	8	68	77	kitchen	sun_acxkpeoqbwcxfvip.tif	1193330.800048	1193331.058643	1193331.740429	7.840952e-01	67	none	NaN	NaN
112	8	69	74	kitchen	sun_acfmftudsenhrfhy.tif	1193332.510078	1193332.768666	1193333.450393	8.091195e-01	64	none	NaN	NaN
112	8	70	94	kitchen	sun_ahywdevtimnqcsln.tif	1193334.220107	1193334.478695	1193335.160477	7.090222e-01	84	39	1193336.137842	1
112	8	71	95	kitchen	sun_aixorpehvfykdynp.tif	1193336.914440	1193337.173031	1193337.854800	6.673150e-01	85	39	1193341.681805	1
112	8	72	73	kitchen	sun_abrcnpqqhmjwekyf.tif	1193342.453265	1193342.711849	1193343.393610	8.007780e-01	63	37	1193344.081726	1
112	8	73	88	kitchen	sun_agubuxuukhzyzpdp.tif	1193344.855642	1193345.114228	1193345.796029	8.174609e-01	78	none	NaN	NaN
112	8	74	98	kitchen	sun_akchetnepxlcxhsu.tif	1193346.565668	1193346.824261	1193347.506080	8.007780e-01	88	none	NaN	NaN
112	8	75	80	kitchen	sun_aegoxogugdkwpmpj.tif	1193348.275692	1193348.534284	1193349.215995	6.673150e-01	70	39	1193350.065873	1
112	8	76	65	kitchen	sun_aamedkxepzlwuxes.tif	1193350.836565	1193351.095153	1193351.777035	7.674123e-01	55	none	NaN	NaN
112	8	77	103	kitchen	sun_aunzlwrbjumxhwdj.tif	1193352.546588	1193352.805181	1193353.486960	7.423880e-01	93	none	NaN	NaN
112	8	78	86	kitchen	sun_aggjlwcdjsjcaemh.tif	1193354.256620	1193354.515209	1193355.197100	8.091195e-01	76	none	NaN	NaN
112	8	79	71	kitchen	sun_abftihopvusyfakt.tif	1193355.966644	1193356.225240	1193356.906922	7.423880e-01	61	none	NaN	NaN
112	8	80	81	kitchen	sun_aehawpgmrlhlvcow.tif	1193357.676670	1193357.935261	1193358.617010	8.341438e-01	71	none	NaN	NaN
112	8	81	96	kitchen	sun_ajcbwwvdlsvjyzje.tif	1193359.386701	1193359.645289	1193360.327023	6.589736e-01	86	none	NaN	NaN
112	8	82	102	kitchen	sun_auaiucuqpdausiva.tif	1193361.096729	1193361.355317	1193362.037170	6.923394e-01	92	none	NaN	NaN
112	8	83	62	kitchen	labelme_kxvouciolcpqplr.tif	1193362.806753	1193363.065346	1193363.747102	7.340465e-01	52	none	NaN	NaN
112	8	84	108	kitchen	sun_aymvwlarqodbwuoc.tif	1193364.516781	1193364.775373	1193365.457096	6.589736e-01	98	none	NaN	NaN
112	8	85	72	kitchen	sun_abpwyqmlzafvklqo.tif	1193366.226804	1193366.485401	1193367.167209	8.174609e-01	62	none	NaN	NaN
112	8	86	87	kitchen	sun_agorklincwxrdtga.tif	1193367.936832	1193368.195424	1193368.877272	7.340465e-01	77	none	NaN	NaN
112	8	87	90	kitchen	sun_ahdycvpopffkzzsu.tif	1193369.646858	1193369.905451	1193370.587323	7.924366e-01	80	none	NaN	NaN
112	8	88	82	kitchen	sun_aenotlpyftoioydp.tif	1193371.356888	1193371.615480	1193372.297228	6.839979e-01	72	none	NaN	NaN
112	8	89	100	kitchen	sun_amjjdeyrggfqgmom.tif	1193373.066914	1193373.325509	1193374.007309	7.173637e-01	90	39	1193375.001619	1
112	8	90	67	kitchen	sun_aarfiyshqohlwkmo.tif	1193375.777932	1193376.036526	1193376.718379	7.090222e-01	57	none	NaN	NaN
112	8	91	104	kitchen	sun_auticobqsbwgoppi.tif	1193377.487964	1193377.746550	1193378.428367	8.091195e-01	94	none	NaN	NaN
112	8	92	110	kitchen	sun_azmutvzbxypaceni.tif	1193379.197993	1193379.456579	1193380.138391	7.674123e-01	100	none	NaN	NaN
112	8	93	105	kitchen	sun_avszsnwsbuqfgzbn.tif	1193380.908014	1193381.166606	1193381.848406	8.174609e-01	95	none	NaN	NaN
112	8	94	97	kitchen	sun_ajkqhtgcbgpcwrwn.tif	1193382.618045	1193382.876629	1193383.558335	8.341438e-01	87	none	NaN	NaN
112	8	95	85	kitchen	sun_afuyedyxivkhecmu.tif	1193384.328072	1193384.586665	1193385.268402	8.341438e-01	75	none	NaN	NaN
112	8	96	89	kitchen	sun_agzzivivdpnawacl.tif	1193386.038095	1193386.296688	1193386.978368	7.924366e-01	79	none	NaN	NaN
112	8	97	91	kitchen	sun_ahljzhgcdpomplvg.tif	1193387.748130	1193388.006710	1193388.688389	6.673150e-01	81	none	NaN	NaN
112	8	98	99	kitchen	sun_akcjzhbbjlbogpdi.tif	1193389.449811	1193389.708397	1193390.390206	6.506322e-01	89	none	NaN	NaN
112	8	99	68	kitchen	sun_aaxxjlsuzvqlgylf.tif	1193391.159837	1193391.418427	1193392.100304	6.756565e-01	58	none	NaN	NaN
112	8	100	69	kitchen	sun_abdenxonkemggwsq.tif	1193392.869862	1193393.128451	1193393.810237	6.506322e-01	59	none	NaN	NaN
112	9	1	11	bathroom	labelme_sfxiulhjbhlyiyt.tif	1193399.559824	1193399.818411	1193400.466785	7.757537e-01	1	none	NaN	NaN
112	9	2	24	bathroom	sun_agrwbmhcpmfuwmsg.tif	1193401.236488	1193401.495076	1193402.143482	8.508267e-01	14	none	NaN	NaN
112	9	3	60	bathroom	sun_azqyogdvyhahyram.tif	1193402.913149	1193403.171738	1193403.820070	7.006808e-01	50	none	NaN	NaN
112	9	4	19	bathroom	sun_aclfzgynxzxlbepz.tif	1193404.589803	1193404.848389	1193405.496783	7.924366e-01	9	none	NaN	NaN
112	9	5	14	bathroom	sun_abapwbhyhkfixyex.tif	1193406.266467	1193406.525056	1193407.173545	8.174609e-01	4	none	NaN	NaN
112	9	6	15	bathroom	sun_abjtwfukuwddzted.tif	1193407.943127	1193408.201716	1193408.850059	6.923394e-01	5	39	1193409.809803	1
112	9	7	21	bathroom	sun_aggnnqpdorgxpvce.tif	1193410.587416	1193410.846005	1193411.494408	7.507294e-01	11	none	NaN	NaN
112	9	8	38	bathroom	sun_anhioqovhscjqqwb.tif	1193412.264071	1193412.522667	1193413.171546	6.506322e-01	28	none	NaN	NaN
112	9	9	44	bathroom	sun_apkruvsevgegsdwp.tif	1193413.940736	1193414.199325	1193414.847733	6.589736e-01	34	none	NaN	NaN
112	9	10	56	bathroom	sun_awnqiikzaispgmwo.tif	1193415.617395	1193415.875989	1193416.524467	6.589736e-01	46	none	NaN	NaN
112	9	11	16	bathroom	sun_acduarbnmmoglmiv.tif	1193417.294056	1193417.552651	1193418.201102	8.258024e-01	6	none	NaN	NaN
112	9	12	45	bathroom	sun_apkxzenqapsujocq.tif	1193418.970715	1193419.229306	1193419.877778	8.007780e-01	35	none	NaN	NaN
112	9	13	18	bathroom	sun_acgyywnybuveqsro.tif	1193420.647378	1193420.905968	1193421.554320	8.424852e-01	8	none	NaN	NaN
112	9	14	20	bathroom	sun_afcoljnjfoxjtgja.tif	1193422.324038	1193422.582629	1193423.230980	7.757537e-01	10	37	1193423.945658	1
112	9	15	49	bathroom	sun_asfwthctfqerjvxr.tif	1193424.718075	1193424.976666	1193425.625051	8.091195e-01	39	none	NaN	NaN
112	9	16	31	bathroom	sun_akiytfaagpdsphgz.tif	1193426.394736	1193426.653327	1193427.301662	7.590709e-01	21	none	NaN	NaN
112	9	17	17	bathroom	sun_acegryoqftbzowsg.tif	1193428.063059	1193428.321648	1193428.970004	7.423880e-01	7	none	NaN	NaN
112	9	18	54	bathroom	sun_auzqhkafidnkrwmo.tif	1193429.739718	1193429.998306	1193430.646646	8.508267e-01	44	none	NaN	NaN
112	9	19	50	bathroom	sun_aspsyogrekjtfozg.tif	1193431.416378	1193431.674967	1193432.323289	8.174609e-01	40	none	NaN	NaN
112	9	20	34	bathroom	sun_alkosphxlxwjwgjd.tif	1193433.084699	1193433.343287	1193433.991808	7.340465e-01	24	37	1193434.881682	1
112	9	21	53	bathroom	sun_ausgutylgojavyoq.tif	1193435.653910	1193435.912500	1193436.560915	6.839979e-01	43	none	NaN	NaN
112	9	22	13	bathroom	sun_aavhrsfjbserjtht.tif	1193437.330574	1193437.589161	1193438.237524	6.673150e-01	3	none	NaN	NaN
112	9	23	52	bathroom	sun_aunuadmjocsddsrl.tif	1193439.007232	1193439.265817	1193439.914203	6.506322e-01	42	none	NaN	NaN
112	9	24	12	bathroom	sun_aapitsgbtktqubfy.tif	1193440.683890	1193440.942480	1193441.590813	7.590709e-01	2	none	NaN	NaN
112	9	25	39	bathroom	sun_anryaplzeujmzfkd.tif	1193442.360551	1193442.619145	1193443.267498	7.340465e-01	29	none	NaN	NaN
112	9	26	29	bathroom	sun_ahqjwnzgolcaoidx.tif	1193444.037216	1193444.295801	1193444.944207	7.090222e-01	19	none	NaN	NaN
112	9	27	26	bathroom	sun_ahaulkltgpkeeemi.tif	1193445.713876	1193445.972460	1193446.620938	6.673150e-01	16	37	1193447.313687	1
112	9	28	51	bathroom	sun_atstyziqcmkahyxk.tif	1193448.091228	1193448.349816	1193448.998276	7.090222e-01	41	none	NaN	NaN
