subject	block	trial	texture	category	image	trialOnset	itiOnset	trialEnd	iti	EEGtrigger	responseKey	responseTime	accuracy
102	1	1	13	bathroom	sun_aavhrsfjbserjtht.tif	323910.150305	323910.400619	323911.146811	7.505944e-01	3	none	NaN	NaN
102	1	2	49	bathroom	sun_asfwthctfqerjvxr.tif	323911.918411	323912.168582	323912.915056	8.506737e-01	39	none	NaN	NaN
102	1	3	25	bathroom	sun_agyqfjcfkdcydepw.tif	323913.686517	323913.936891	323914.683073	6.671950e-01	15	39	323916.733445	1
102	1	4	38	bathroom	sun_anhioqovhscjqqwb.tif	323917.522955	323917.773136	323918.519603	7.839542e-01	28	none	NaN	NaN
102	1	5	37	bathroom	sun_amzlamotzwfkwjco.tif	323919.291064	323919.541124	323920.287710	7.172347e-01	27	none	NaN	NaN
102	1	6	16	bathroom	sun_acduarbnmmoglmiv.tif	323921.059176	323921.309532	323922.055817	6.838749e-01	6	none	NaN	NaN
102	1	7	41	bathroom	sun_aoybiabnpadelefl.tif	323922.827264	323923.077564	323923.823764	7.005548e-01	31	39	323927.245533	1
102	1	8	55	bathroom	sun_avhrdrntsqrjzccq.tif	323928.048183	323928.298463	323929.044713	7.005548e-01	45	none	NaN	NaN
102	1	9	60	bathroom	sun_azqyogdvyhahyram.tif	323929.816277	323930.066540	323930.812887	7.339145e-01	50	39	323933.573477	0
102	1	10	29	bathroom	sun_ahqjwnzgolcaoidx.tif	323934.369997	323934.620307	323935.366473	7.339145e-01	19	none	NaN	NaN
102	1	11	15	bathroom	sun_abjtwfukuwddzted.tif	323936.138093	323936.388339	323937.134614	8.339938e-01	5	39	323940.901459	0
102	1	12	39	bathroom	sun_anryaplzeujmzfkd.tif	323941.692629	323941.942764	323942.689189	6.838749e-01	29	none	NaN	NaN
102	1	13	17	bathroom	sun_acegryoqftbzowsg.tif	323943.460741	323943.710526	323944.457217	8.006340e-01	7	none	NaN	NaN
102	1	14	30	bathroom	sun_ajlawzvmubibwbpy.tif	323945.228838	323945.478626	323946.225380	8.173139e-01	20	none	NaN	NaN
102	1	15	23	bathroom	sun_aghyqhbptboemmoq.tif	323946.996921	323947.247195	323947.993544	7.839542e-01	13	none	NaN	NaN
102	1	16	53	bathroom	sun_ausgutylgojavyoq.tif	323948.765029	323949.015220	323949.761679	7.505944e-01	43	none	NaN	NaN
102	1	17	59	bathroom	sun_axyrejkiiaqiurjk.tif	323950.533126	323950.783503	323951.529654	7.339145e-01	49	none	NaN	NaN
102	1	18	58	bathroom	sun_axxbkopsgyouuebh.tif	323952.301227	323952.551349	323953.297769	7.339145e-01	48	none	NaN	NaN
102	1	19	14	bathroom	sun_abapwbhyhkfixyex.tif	323954.069331	323954.319660	323955.065884	7.005548e-01	4	none	NaN	NaN
102	1	20	33	bathroom	sun_aljolscmmzydegqp.tif	323955.837436	323956.087636	323956.833917	6.838749e-01	23	none	NaN	NaN
102	1	21	46	bathroom	sun_apmqjbnwghzuhhzh.tif	323957.605565	323957.855857	323958.602074	7.339145e-01	36	39	323961.525401	1
102	1	22	18	bathroom	sun_acgyywnybuveqsro.tif	323962.326065	323962.576205	323963.322687	6.671950e-01	8	none	NaN	NaN
102	1	23	19	bathroom	sun_aclfzgynxzxlbepz.tif	323964.094360	323964.344014	323965.090792	7.839542e-01	9	none	NaN	NaN
102	1	24	11	bathroom	labelme_sfxiulhjbhlyiyt.tif	323965.862255	323966.112521	323966.858793	6.671950e-01	1	39	323968.261412	1
102	1	25	27	bathroom	sun_ahcvzmoyaycdoftf.tif	323969.064865	323969.315004	323970.061318	8.173139e-01	17	none	NaN	NaN
102	1	26	21	bathroom	sun_aggnnqpdorgxpvce.tif	323970.832979	323971.083336	323971.829409	7.672743e-01	11	none	NaN	NaN
102	1	27	42	bathroom	sun_apeeialkgkuxddgh.tif	323972.601079	323972.851176	323973.597544	7.505944e-01	32	none	NaN	NaN
102	1	28	56	bathroom	sun_awnqiikzaispgmwo.tif	323974.369188	323974.619288	323975.365622	8.173139e-01	46	none	NaN	NaN
102	1	29	44	bathroom	sun_apkruvsevgegsdwp.tif	323976.137280	323976.387545	323977.133830	7.505944e-01	34	none	NaN	NaN
102	1	30	20	bathroom	sun_afcoljnjfoxjtgja.tif	323977.905382	323978.155613	323978.902022	7.172347e-01	10	none	NaN	NaN
102	1	31	28	bathroom	sun_ahijqszoswveeyji.tif	323979.673500	323979.923774	323980.669946	8.506737e-01	18	none	NaN	NaN
102	1	32	26	bathroom	sun_ahaulkltgpkeeemi.tif	323981.441637	323981.691858	323982.438099	7.672743e-01	16	none	NaN	NaN
102	1	33	22	bathroom	sun_agguqiubmwhqqunb.tif	323983.209694	323983.459975	323984.206183	7.005548e-01	12	none	NaN	NaN
102	1	34	47	bathroom	sun_apynckhmoftszqoq.tif	323984.977821	323985.228118	323985.974417	7.672743e-01	37	none	NaN	NaN
102	1	35	45	bathroom	sun_apkxzenqapsujocq.tif	323986.745906	323986.996219	323987.742516	8.173139e-01	35	none	NaN	NaN
102	1	36	34	bathroom	sun_alkosphxlxwjwgjd.tif	323988.514036	323988.764312	323989.510629	8.339938e-01	24	none	NaN	NaN
102	1	37	12	bathroom	sun_aapitsgbtktqubfy.tif	323990.282111	323990.532480	323991.278580	8.006340e-01	2	none	NaN	NaN
102	1	38	52	bathroom	sun_aunuadmjocsddsrl.tif	323992.050237	323992.300395	323993.046821	7.005548e-01	42	none	NaN	NaN
102	1	39	50	bathroom	sun_aspsyogrekjtfozg.tif	323993.818323	323994.068180	323994.814883	7.839542e-01	40	none	NaN	NaN
102	1	40	54	bathroom	sun_auzqhkafidnkrwmo.tif	323995.586445	323995.836774	323996.582991	6.505152e-01	44	none	NaN	NaN
102	1	41	31	bathroom	sun_akiytfaagpdsphgz.tif	323997.354528	323997.604641	323998.351012	6.505152e-01	21	39	324000.477461	1
102	1	42	48	bathroom	sun_aqrpegblszgcoujh.tif	324001.274387	324001.524716	324002.270824	8.173139e-01	38	none	NaN	NaN
102	1	43	35	bathroom	sun_alotolagknyrgtsk.tif	324003.042486	324003.292970	324004.038916	8.006340e-01	25	none	NaN	NaN
102	1	44	24	bathroom	sun_agrwbmhcpmfuwmsg.tif	324004.810589	324005.060862	324005.807106	7.172347e-01	14	none	NaN	NaN
102	1	45	40	bathroom	sun_aofnryafpsjimzsb.tif	324006.578704	324006.830374	324007.575266	7.839542e-01	30	none	NaN	NaN
102	1	46	36	bathroom	sun_ambriybtogmepttm.tif	324008.346815	324008.596981	324009.343326	7.672743e-01	26	none	NaN	NaN
102	1	47	57	bathroom	sun_axldvoqbuvuggfmq.tif	324010.114927	324010.365169	324011.111370	8.339938e-01	47	none	NaN	NaN
102	1	48	43	bathroom	sun_apjevzvycyhuqghb.tif	324011.883023	324012.132577	324012.879616	6.505152e-01	33	none	NaN	NaN
102	1	49	32	bathroom	sun_aleqenyvunhactkl.tif	324013.651119	324013.901316	324014.647563	7.005548e-01	22	none	NaN	NaN
102	1	50	51	bathroom	sun_atstyziqcmkahyxk.tif	324015.419221	324015.669307	324016.415877	8.006340e-01	41	none	NaN	NaN
102	1	51	59	bathroom	sun_axyrejkiiaqiurjk.tif	324017.187336	324017.437590	324018.183974	7.005548e-01	49	none	NaN	NaN
102	1	52	11	bathroom	labelme_sfxiulhjbhlyiyt.tif	324018.955437	324019.205645	324019.951964	7.339145e-01	1	none	NaN	NaN
102	1	53	25	bathroom	sun_agyqfjcfkdcydepw.tif	324020.723543	324020.973869	324021.719997	7.505944e-01	15	none	NaN	NaN
102	1	54	16	bathroom	sun_acduarbnmmoglmiv.tif	324022.491644	324022.742008	324023.488078	7.172347e-01	6	none	NaN	NaN
102	1	55	21	bathroom	sun_aggnnqpdorgxpvce.tif	324024.259734	324024.510066	324025.256590	7.505944e-01	11	none	NaN	NaN
102	1	56	51	bathroom	sun_atstyziqcmkahyxk.tif	324026.027847	324026.278041	324027.024442	7.839542e-01	41	none	NaN	NaN
102	1	57	32	bathroom	sun_aleqenyvunhactkl.tif	324027.795969	324028.046210	324028.792600	8.006340e-01	22	none	NaN	NaN
102	1	58	33	bathroom	sun_aljolscmmzydegqp.tif	324029.564050	324029.814343	324030.560705	7.672743e-01	23	none	NaN	NaN
102	1	59	18	bathroom	sun_acgyywnybuveqsro.tif	324031.332168	324031.582461	324032.328805	7.172347e-01	8	none	NaN	NaN
102	1	60	36	bathroom	sun_ambriybtogmepttm.tif	324033.100274	324033.350624	324034.096827	7.839542e-01	26	none	NaN	NaN
102	1	61	13	bathroom	sun_aavhrsfjbserjtht.tif	324034.868373	324035.118626	324035.865018	8.506737e-01	3	none	NaN	NaN
102	1	62	56	bathroom	sun_awnqiikzaispgmwo.tif	324036.636490	324036.886764	324037.632993	7.672743e-01	46	39	324039.685397	1
102	1	63	14	bathroom	sun_abapwbhyhkfixyex.tif	324040.489607	324040.739808	324041.486145	6.671950e-01	4	none	NaN	NaN
102	1	64	45	bathroom	sun_apkxzenqapsujocq.tif	324042.257677	324042.507776	324043.254216	8.173139e-01	35	none	NaN	NaN
102	1	65	38	bathroom	sun_anhioqovhscjqqwb.tif	324044.025816	324044.275923	324045.022344	8.339938e-01	28	37	324046.181349	1
102	1	66	44	bathroom	sun_apkruvsevgegsdwp.tif	324046.978211	324047.228550	324047.974803	8.006340e-01	34	37	324049.045157	1
102	1	67	35	bathroom	sun_alotolagknyrgtsk.tif	324049.847219	324050.097472	324050.843777	6.671950e-01	25	none	NaN	NaN
102	1	68	55	bathroom	sun_avhrdrntsqrjzccq.tif	324051.615337	324051.865611	324052.611782	6.838749e-01	45	39	324054.069404	1
102	1	69	22	bathroom	sun_agguqiubmwhqqunb.tif	324054.867966	324055.118175	324055.864593	6.838749e-01	12	none	NaN	NaN
102	1	70	24	bathroom	sun_agrwbmhcpmfuwmsg.tif	324056.636075	324056.886440	324057.632643	7.505944e-01	14	none	NaN	NaN
102	1	71	47	bathroom	sun_apynckhmoftszqoq.tif	324058.404205	324058.654267	324059.400741	8.339938e-01	37	none	NaN	NaN
102	1	72	53	bathroom	sun_ausgutylgojavyoq.tif	324060.172284	324060.422441	324061.168794	7.672743e-01	43	none	NaN	NaN
102	1	73	15	bathroom	sun_abjtwfukuwddzted.tif	324061.940381	324062.190591	324062.936872	8.006340e-01	5	none	NaN	NaN
102	1	74	28	bathroom	sun_ahijqszoswveeyji.tif	324063.708509	324063.959978	324064.705032	7.339145e-01	18	none	NaN	NaN
102	1	75	26	bathroom	sun_ahaulkltgpkeeemi.tif	324065.476593	324065.726727	324066.473199	8.173139e-01	16	37	324067.917125	1
102	1	76	58	bathroom	sun_axxbkopsgyouuebh.tif	324068.712553	324068.962806	324069.709197	6.838749e-01	48	none	NaN	NaN
102	1	77	17	bathroom	sun_acegryoqftbzowsg.tif	324070.480702	324070.731037	324071.477282	6.838749e-01	7	37	324073.549250	1
102	1	78	54	bathroom	sun_auzqhkafidnkrwmo.tif	324074.350471	324074.600579	324075.346924	8.339938e-01	44	none	NaN	NaN
102	1	79	30	bathroom	sun_ajlawzvmubibwbpy.tif	324076.118590	324076.368768	324077.115164	7.172347e-01	20	none	NaN	NaN
102	1	80	19	bathroom	sun_aclfzgynxzxlbepz.tif	324077.886700	324078.136997	324078.883134	8.173139e-01	9	none	NaN	NaN
102	1	81	60	bathroom	sun_azqyogdvyhahyram.tif	324079.654782	324079.905082	324080.651246	7.172347e-01	50	none	NaN	NaN
102	1	82	50	bathroom	sun_aspsyogrekjtfozg.tif	324081.422903	324081.672999	324082.419546	7.839542e-01	40	none	NaN	NaN
102	1	83	42	bathroom	sun_apeeialkgkuxddgh.tif	324083.191007	324083.441334	324084.187598	7.005548e-01	32	none	NaN	NaN
102	1	84	49	bathroom	sun_asfwthctfqerjvxr.tif	324084.959101	324085.209286	324085.955612	7.672743e-01	39	none	NaN	NaN
102	1	85	27	bathroom	sun_ahcvzmoyaycdoftf.tif	324086.727203	324086.977353	324087.723807	7.005548e-01	17	none	NaN	NaN
102	1	86	12	bathroom	sun_aapitsgbtktqubfy.tif	324088.495311	324088.745578	324089.491782	7.339145e-01	2	none	NaN	NaN
102	1	87	23	bathroom	sun_aghyqhbptboemmoq.tif	324090.263409	324090.513550	324091.259964	6.505152e-01	13	39	324092.597102	1
102	1	88	20	bathroom	sun_afcoljnjfoxjtgja.tif	324093.399300	324093.649575	324094.395810	8.339938e-01	10	none	NaN	NaN
102	1	89	40	bathroom	sun_aofnryafpsjimzsb.tif	324095.167403	324095.417702	324096.163933	6.505152e-01	30	none	NaN	NaN
102	1	90	39	bathroom	sun_anryaplzeujmzfkd.tif	324096.935494	324097.185670	324097.932137	6.838749e-01	29	none	NaN	NaN
102	1	91	43	bathroom	sun_apjevzvycyhuqghb.tif	324098.703616	324098.953420	324099.700048	8.339938e-01	33	none	NaN	NaN
102	1	92	34	bathroom	sun_alkosphxlxwjwgjd.tif	324100.471732	324100.721894	324101.468281	6.671950e-01	24	none	NaN	NaN
102	1	93	41	bathroom	sun_aoybiabnpadelefl.tif	324102.239806	324102.490013	324103.236412	8.339938e-01	31	none	NaN	NaN
102	1	94	46	bathroom	sun_apmqjbnwghzuhhzh.tif	324104.007962	324104.258117	324105.004431	6.671950e-01	36	none	NaN	NaN
102	1	95	57	bathroom	sun_axldvoqbuvuggfmq.tif	324105.776049	324106.026348	324106.772571	8.506737e-01	47	none	NaN	NaN
102	1	96	31	bathroom	sun_akiytfaagpdsphgz.tif	324107.544133	324107.794487	324108.540650	7.505944e-01	21	39	324112.005265	0
102	1	97	37	bathroom	sun_amzlamotzwfkwjco.tif	324112.798401	324113.048687	324113.794987	7.172347e-01	27	none	NaN	NaN
102	1	98	29	bathroom	sun_ahqjwnzgolcaoidx.tif	324114.566513	324114.816820	324115.563165	7.672743e-01	19	none	NaN	NaN
102	1	99	52	bathroom	sun_aunuadmjocsddsrl.tif	324116.334612	324116.584902	324117.331086	8.006340e-01	42	none	NaN	NaN
102	1	100	48	bathroom	sun_aqrpegblszgcoujh.tif	324118.102701	324118.352899	324119.099188	6.671950e-01	38	none	NaN	NaN
102	2	1	62	kitchen	labelme_kxvouciolcpqplr.tif	324143.773583	324144.023674	324144.720021	8.339938e-01	52	none	NaN	NaN
102	2	2	82	kitchen	sun_aenotlpyftoioydp.tif	324145.491644	324145.741855	324146.438138	7.005548e-01	72	none	NaN	NaN
102	2	3	80	kitchen	sun_aegoxogugdkwpmpj.tif	324147.209724	324147.459810	324148.156256	8.339938e-01	70	none	NaN	NaN
102	2	4	84	kitchen	sun_aexklacwqwezaorf.tif	324148.927809	324149.178067	324149.874346	7.505944e-01	74	none	NaN	NaN
102	2	5	88	kitchen	sun_agubuxuukhzyzpdp.tif	324150.645871	324150.896086	324151.592425	7.505944e-01	78	none	NaN	NaN
102	2	6	85	kitchen	sun_afuyedyxivkhecmu.tif	324152.363907	324152.614142	324153.310332	8.006340e-01	75	39	324155.261275	0
102	2	7	73	kitchen	sun_abrcnpqqhmjwekyf.tif	324156.050304	324156.300043	324156.996847	7.672743e-01	63	none	NaN	NaN
102	2	8	99	kitchen	sun_akcjzhbbjlbogpdi.tif	324157.768321	324158.018488	324158.714834	7.339145e-01	89	none	NaN	NaN
102	2	9	75	kitchen	sun_acgtpgfybqjmzeyw.tif	324159.486367	324159.736170	324160.432882	7.672743e-01	65	none	NaN	NaN
102	2	10	92	kitchen	sun_ahpczsiumwwocjkv.tif	324161.204442	324161.454806	324162.150966	7.672743e-01	82	none	NaN	NaN
102	2	11	67	kitchen	sun_aarfiyshqohlwkmo.tif	324162.922493	324163.172636	324163.868887	7.505944e-01	57	37	324164.925271	1
102	2	12	89	kitchen	sun_agzzivivdpnawacl.tif	324165.724761	324165.974950	324166.671237	7.172347e-01	79	none	NaN	NaN
102	2	13	87	kitchen	sun_agorklincwxrdtga.tif	324167.442845	324167.693124	324168.389302	8.339938e-01	77	none	NaN	NaN
102	2	14	70	kitchen	sun_abdxkyyxwfskuaqb.tif	324169.160901	324169.411231	324170.107292	7.005548e-01	60	none	NaN	NaN
102	2	15	69	kitchen	sun_abdenxonkemggwsq.tif	324170.878981	324171.129033	324171.825390	6.505152e-01	59	none	NaN	NaN
102	2	16	66	kitchen	sun_aapllqyqlykszopd.tif	324172.597018	324172.847325	324173.543419	7.339145e-01	56	39	324174.773202	1
102	2	17	104	kitchen	sun_auticobqsbwgoppi.tif	324175.566045	324175.816320	324176.512654	8.006340e-01	94	none	NaN	NaN
102	2	18	90	kitchen	sun_ahdycvpopffkzzsu.tif	324177.284179	324177.534490	324178.230787	6.838749e-01	80	none	NaN	NaN
102	2	19	96	kitchen	sun_ajcbwwvdlsvjyzje.tif	324179.002250	324179.252509	324179.948841	7.005548e-01	86	none	NaN	NaN
102	2	20	65	kitchen	sun_aamedkxepzlwuxes.tif	324180.720278	324180.970619	324181.666765	7.005548e-01	55	none	NaN	NaN
102	2	21	106	kitchen	sun_awcpdzzznmweyyhv.tif	324182.438391	324182.705211	324183.384792	7.672743e-01	96	none	NaN	NaN
102	2	22	83	kitchen	sun_aeqdocilnnpuvuhx.tif	324184.156418	324184.405996	324185.102814	8.339938e-01	73	none	NaN	NaN
102	2	23	64	kitchen	sun_aadbddgrdsjugojn.tif	324185.874487	324186.124647	324186.820949	7.839542e-01	54	none	NaN	NaN
102	2	24	61	kitchen	labelme_brsyyvweiuaazfr.tif	324187.592533	324187.842724	324188.539102	7.172347e-01	51	none	NaN	NaN
102	2	25	107	kitchen	sun_axyyrmzcupyhlivc.tif	324189.310619	324189.560820	324190.257126	7.339145e-01	97	none	NaN	NaN
102	2	26	91	kitchen	sun_ahljzhgcdpomplvg.tif	324191.028666	324191.278952	324191.975094	6.671950e-01	81	none	NaN	NaN
102	2	27	94	kitchen	sun_ahywdevtimnqcsln.tif	324192.746744	324192.997008	324193.693176	7.505944e-01	84	none	NaN	NaN
102	2	28	78	kitchen	sun_adgqasybjyktddhj.tif	324194.464798	324194.715056	324195.411386	7.339145e-01	68	none	NaN	NaN
102	2	29	102	kitchen	sun_auaiucuqpdausiva.tif	324196.182895	324196.433147	324197.129449	7.005548e-01	92	none	NaN	NaN
102	2	30	95	kitchen	sun_aixorpehvfykdynp.tif	324197.900925	324198.151149	324198.847505	6.671950e-01	85	none	NaN	NaN
102	2	31	81	kitchen	sun_aehawpgmrlhlvcow.tif	324199.619052	324199.868799	324200.565623	7.005548e-01	71	39	324201.597035	1
102	2	32	74	kitchen	sun_acfmftudsenhrfhy.tif	324202.387844	324202.638055	324203.334349	8.339938e-01	64	37	324204.165204	1
102	2	33	72	kitchen	sun_abpwyqmlzafvklqo.tif	324204.956679	324205.206940	324205.903207	7.172347e-01	62	none	NaN	NaN
102	2	34	109	kitchen	sun_aypmqwcualkenuoe.tif	324206.674728	324206.924921	324207.621176	7.172347e-01	99	37	324208.533020	1
102	2	35	63	kitchen	labelme_rykdqxenmhulbdn.tif	324209.326898	324209.577095	324210.273329	7.839542e-01	53	none	NaN	NaN
102	2	36	105	kitchen	sun_avszsnwsbuqfgzbn.tif	324211.044965	324211.295144	324211.991555	7.005548e-01	95	none	NaN	NaN
102	2	37	98	kitchen	sun_akchetnepxlcxhsu.tif	324212.763022	324213.013105	324213.709631	8.173139e-01	88	none	NaN	NaN
102	2	38	86	kitchen	sun_aggjlwcdjsjcaemh.tif	324214.481094	324214.731448	324215.427646	6.671950e-01	76	none	NaN	NaN
102	2	39	68	kitchen	sun_aaxxjlsuzvqlgylf.tif	324216.199152	324216.449501	324217.145602	7.505944e-01	58	none	NaN	NaN
102	2	40	71	kitchen	sun_abftihopvusyfakt.tif	324217.917192	324218.167457	324218.863589	8.339938e-01	61	none	NaN	NaN
102	2	41	93	kitchen	sun_ahspylgoovwmwvgk.tif	324219.635267	324219.885464	324220.581685	7.672743e-01	83	39	324221.797294	1
102	2	42	100	kitchen	sun_amjjdeyrggfqgmom.tif	324222.587660	324222.837737	324223.534157	8.173139e-01	90	none	NaN	NaN
102	2	43	108	kitchen	sun_aymvwlarqodbwuoc.tif	324224.305722	324224.556040	324225.252204	6.671950e-01	98	none	NaN	NaN
102	2	44	76	kitchen	sun_acwjdupvyjsugpay.tif	324226.023803	324226.274065	324226.970413	7.839542e-01	66	none	NaN	NaN
102	2	45	97	kitchen	sun_ajkqhtgcbgpcwrwn.tif	324227.741865	324227.992219	324228.688265	7.672743e-01	87	none	NaN	NaN
102	2	46	79	kitchen	sun_admlmbcdswaszruo.tif	324229.459927	324229.710067	324230.406409	8.173139e-01	69	none	NaN	NaN
102	2	47	77	kitchen	sun_acxkpeoqbwcxfvip.tif	324231.177989	324231.428101	324232.124479	7.839542e-01	67	none	NaN	NaN
102	2	48	103	kitchen	sun_aunzlwrbjumxhwdj.tif	324232.896058	324233.146232	324233.842528	7.839542e-01	93	none	NaN	NaN
102	2	49	110	kitchen	sun_azmutvzbxypaceni.tif	324234.614127	324234.864315	324235.560530	8.006340e-01	100	none	NaN	NaN
102	2	50	101	kitchen	sun_aqeaevwwwjoqhzvl.tif	324236.332199	324236.582358	324237.278716	7.172347e-01	91	none	NaN	NaN
102	2	51	88	kitchen	sun_agubuxuukhzyzpdp.tif	324238.050294	324238.300511	324238.996872	8.173139e-01	78	none	NaN	NaN
102	2	52	92	kitchen	sun_ahpczsiumwwocjkv.tif	324239.768325	324240.018486	324240.714837	6.838749e-01	82	39	324241.781159	1
102	2	53	66	kitchen	sun_aapllqyqlykszopd.tif	324242.570586	324242.820945	324243.517051	8.006340e-01	56	none	NaN	NaN
102	2	54	102	kitchen	sun_auaiucuqpdausiva.tif	324244.288637	324244.538953	324245.235090	7.839542e-01	92	37	324246.117290	1
102	2	55	78	kitchen	sun_adgqasybjyktddhj.tif	324246.907465	324247.157749	324247.853943	8.006340e-01	68	none	NaN	NaN
102	2	56	68	kitchen	sun_aaxxjlsuzvqlgylf.tif	324248.625518	324248.875790	324249.571959	6.838749e-01	58	none	NaN	NaN
102	2	57	62	kitchen	labelme_kxvouciolcpqplr.tif	324250.343570	324250.593789	324251.290139	6.671950e-01	52	none	NaN	NaN
102	2	58	100	kitchen	sun_amjjdeyrggfqgmom.tif	324252.061638	324252.311947	324253.008145	6.838749e-01	90	none	NaN	NaN
102	2	59	74	kitchen	sun_acfmftudsenhrfhy.tif	324253.779710	324254.029945	324254.726289	7.172347e-01	64	none	NaN	NaN
102	2	60	109	kitchen	sun_aypmqwcualkenuoe.tif	324255.497799	324255.747873	324256.444377	8.506737e-01	99	none	NaN	NaN
102	2	61	105	kitchen	sun_avszsnwsbuqfgzbn.tif	324257.215834	324257.466081	324258.162312	7.505944e-01	95	none	NaN	NaN
102	2	62	67	kitchen	sun_aarfiyshqohlwkmo.tif	324258.933825	324259.184029	324259.880306	6.838749e-01	57	none	NaN	NaN
102	2	63	83	kitchen	sun_aeqdocilnnpuvuhx.tif	324260.651942	324260.902149	324261.598379	6.671950e-01	73	none	NaN	NaN
102	2	64	90	kitchen	sun_ahdycvpopffkzzsu.tif	324262.370017	324262.619818	324263.316497	6.838749e-01	80	none	NaN	NaN
102	2	65	75	kitchen	sun_acgtpgfybqjmzeyw.tif	324264.088083	324264.338351	324265.034661	7.839542e-01	65	none	NaN	NaN
102	2	66	101	kitchen	sun_aqeaevwwwjoqhzvl.tif	324265.806216	324266.056281	324266.752816	7.672743e-01	91	none	NaN	NaN
102	2	67	82	kitchen	sun_aenotlpyftoioydp.tif	324267.524194	324267.774414	324268.470787	6.838749e-01	72	39	324269.708973	1
102	2	68	97	kitchen	sun_ajkqhtgcbgpcwrwn.tif	324270.509952	324270.760089	324271.456522	7.005548e-01	87	none	NaN	NaN
102	2	69	77	kitchen	sun_acxkpeoqbwcxfvip.tif	324272.228039	324272.478180	324273.174480	7.339145e-01	67	none	NaN	NaN
102	2	70	63	kitchen	labelme_rykdqxenmhulbdn.tif	324273.946073	324274.196276	324274.892538	7.339145e-01	53	none	NaN	NaN
102	2	71	87	kitchen	sun_agorklincwxrdtga.tif	324275.664182	324275.914444	324276.610625	8.339938e-01	77	none	NaN	NaN
102	2	72	84	kitchen	sun_aexklacwqwezaorf.tif	324277.382215	324277.632512	324278.328799	7.672743e-01	74	none	NaN	NaN
102	2	73	94	kitchen	sun_ahywdevtimnqcsln.tif	324279.100285	324279.350619	324280.046770	7.005548e-01	84	37	324281.332965	1
102	2	74	65	kitchen	sun_aamedkxepzlwuxes.tif	324282.136075	324282.386301	324283.082667	8.506737e-01	55	none	NaN	NaN
102	2	75	96	kitchen	sun_ajcbwwvdlsvjyzje.tif	324283.854158	324284.104490	324284.800737	7.505944e-01	86	39	324285.869171	1
102	2	76	106	kitchen	sun_awcpdzzznmweyyhv.tif	324286.673120	324286.923348	324287.619707	8.006340e-01	96	none	NaN	NaN
102	2	77	80	kitchen	sun_aegoxogugdkwpmpj.tif	324288.391183	324288.641392	324289.337673	8.339938e-01	70	37	324290.933149	1
102	2	78	95	kitchen	sun_aixorpehvfykdynp.tif	324291.727193	324291.977539	324292.673675	7.339145e-01	85	none	NaN	NaN
102	2	79	81	kitchen	sun_aehawpgmrlhlvcow.tif	324293.445276	324293.695502	324294.391881	8.173139e-01	71	none	NaN	NaN
102	2	80	76	kitchen	sun_acwjdupvyjsugpay.tif	324295.163342	324295.413523	324296.109857	6.505152e-01	66	39	324296.788954	1
102	2	81	61	kitchen	labelme_brsyyvweiuaazfr.tif	324297.581958	324297.832259	324298.528491	8.006340e-01	51	none	NaN	NaN
102	2	82	98	kitchen	sun_akchetnepxlcxhsu.tif	324299.300047	324299.550223	324300.246599	8.006340e-01	88	none	NaN	NaN
102	2	83	91	kitchen	sun_ahljzhgcdpomplvg.tif	324301.018111	324301.268309	324301.964523	6.505152e-01	81	none	NaN	NaN
102	2	84	72	kitchen	sun_abpwyqmlzafvklqo.tif	324302.736182	324302.986352	324303.682673	6.505152e-01	62	none	NaN	NaN
102	2	85	107	kitchen	sun_axyyrmzcupyhlivc.tif	324304.454235	324304.704520	324305.400738	7.505944e-01	97	39	324306.549218	1
102	2	86	104	kitchen	sun_auticobqsbwgoppi.tif	324307.339936	324307.590207	324308.286385	6.838749e-01	94	none	NaN	NaN
102	2	87	108	kitchen	sun_aymvwlarqodbwuoc.tif	324309.057963	324309.308245	324310.004522	7.172347e-01	98	none	NaN	NaN
102	2	88	93	kitchen	sun_ahspylgoovwmwvgk.tif	324310.776017	324311.026359	324311.722559	8.173139e-01	83	none	NaN	NaN
102	2	89	86	kitchen	sun_aggjlwcdjsjcaemh.tif	324312.494116	324312.744355	324313.440624	8.173139e-01	76	none	NaN	NaN
102	2	90	103	kitchen	sun_aunzlwrbjumxhwdj.tif	324314.212168	324314.462254	324315.158652	6.505152e-01	93	none	NaN	NaN
102	2	91	73	kitchen	sun_abrcnpqqhmjwekyf.tif	324315.930226	324316.180530	324316.876777	7.339145e-01	63	none	NaN	NaN
102	2	92	89	kitchen	sun_agzzivivdpnawacl.tif	324317.648295	324317.898361	324318.594699	7.672743e-01	79	none	NaN	NaN
102	2	93	71	kitchen	sun_abftihopvusyfakt.tif	324319.366352	324319.616561	324320.312953	6.671950e-01	61	none	NaN	NaN
102	2	94	85	kitchen	sun_afuyedyxivkhecmu.tif	324321.084412	324321.334656	324322.030856	8.506737e-01	75	none	NaN	NaN
102	2	95	64	kitchen	sun_aadbddgrdsjugojn.tif	324322.802481	324323.052638	324323.748915	6.671950e-01	54	none	NaN	NaN
102	2	96	110	kitchen	sun_azmutvzbxypaceni.tif	324324.520534	324324.770732	324325.467021	8.506737e-01	100	none	NaN	NaN
102	2	97	70	kitchen	sun_abdxkyyxwfskuaqb.tif	324326.238621	324326.488960	324327.185136	8.339938e-01	60	none	NaN	NaN
102	2	98	99	kitchen	sun_akcjzhbbjlbogpdi.tif	324327.956680	324328.206813	324328.903179	7.839542e-01	89	none	NaN	NaN
102	2	99	79	kitchen	sun_admlmbcdswaszruo.tif	324329.674743	324329.924936	324330.621190	8.173139e-01	69	none	NaN	NaN
102	2	100	69	kitchen	sun_abdenxonkemggwsq.tif	324331.392811	324331.642936	324332.339352	7.172347e-01	59	none	NaN	NaN
102	3	1	27	bathroom	sun_ahcvzmoyaycdoftf.tif	324342.401724	324342.651993	324343.481726	8.173139e-01	17	none	NaN	NaN
102	3	2	21	bathroom	sun_aggnnqpdorgxpvce.tif	324344.253253	324344.503514	324345.333100	6.838749e-01	11	39	324346.885073	1
102	3	3	19	bathroom	sun_aclfzgynxzxlbepz.tif	324347.689365	324347.939693	324348.769412	8.339938e-01	9	none	NaN	NaN
102	3	4	46	bathroom	sun_apmqjbnwghzuhhzh.tif	324349.540908	324349.791044	324350.620929	7.005548e-01	36	none	NaN	NaN
102	3	5	17	bathroom	sun_acegryoqftbzowsg.tif	324351.392419	324351.642644	324352.472354	8.506737e-01	7	none	NaN	NaN
102	3	6	34	bathroom	sun_alkosphxlxwjwgjd.tif	324353.243914	324353.494194	324354.323763	7.339145e-01	24	none	NaN	NaN
102	3	7	18	bathroom	sun_acgyywnybuveqsro.tif	324355.095398	324355.345733	324356.175360	7.005548e-01	8	none	NaN	NaN
102	3	8	38	bathroom	sun_anhioqovhscjqqwb.tif	324356.946886	324357.197038	324358.026937	6.838749e-01	28	none	NaN	NaN
102	3	9	50	bathroom	sun_aspsyogrekjtfozg.tif	324358.798409	324359.048759	324359.878319	8.339938e-01	40	none	NaN	NaN
102	3	10	29	bathroom	sun_ahqjwnzgolcaoidx.tif	324360.649912	324360.900105	324361.729758	7.172347e-01	19	37	324362.877067	1
102	3	11	53	bathroom	sun_ausgutylgojavyoq.tif	324363.669033	324363.919336	324364.749063	6.671950e-01	43	none	NaN	NaN
102	3	12	59	bathroom	sun_axyrejkiiaqiurjk.tif	324365.520530	324365.770689	324366.600410	7.839542e-01	49	none	NaN	NaN
102	3	13	24	bathroom	sun_agrwbmhcpmfuwmsg.tif	324367.372035	324367.622260	324368.451923	8.006340e-01	14	none	NaN	NaN
102	3	14	58	bathroom	sun_axxbkopsgyouuebh.tif	324369.223540	324369.473722	324370.303494	7.505944e-01	48	none	NaN	NaN
102	3	15	31	bathroom	sun_akiytfaagpdsphgz.tif	324371.075057	324371.325282	324372.155043	6.838749e-01	21	none	NaN	NaN
102	3	16	13	bathroom	sun_aavhrsfjbserjtht.tif	324372.926559	324373.176925	324374.006386	7.505944e-01	3	none	NaN	NaN
102	3	17	54	bathroom	sun_auzqhkafidnkrwmo.tif	324374.778054	324375.028305	324375.858032	8.339938e-01	44	37	324376.797076	1
102	3	18	37	bathroom	sun_amzlamotzwfkwjco.tif	324377.597027	324377.847283	324378.677034	7.339145e-01	27	none	NaN	NaN
102	3	19	49	bathroom	sun_asfwthctfqerjvxr.tif	324379.448521	324379.698844	324380.528399	7.172347e-01	39	none	NaN	NaN
102	3	20	45	bathroom	sun_apkxzenqapsujocq.tif	324381.300047	324381.550271	324382.379919	6.838749e-01	35	none	NaN	NaN
102	3	21	39	bathroom	sun_anryaplzeujmzfkd.tif	324383.151522	324383.401719	324384.231390	6.505152e-01	29	none	NaN	NaN
102	3	22	51	bathroom	sun_atstyziqcmkahyxk.tif	324385.003038	324385.253361	324386.082944	7.672743e-01	41	none	NaN	NaN
102	3	23	30	bathroom	sun_ajlawzvmubibwbpy.tif	324386.854558	324387.104830	324387.934547	6.838749e-01	20	none	NaN	NaN
102	3	24	33	bathroom	sun_aljolscmmzydegqp.tif	324388.706049	324388.956426	324389.785922	7.839542e-01	23	none	NaN	NaN
102	3	25	20	bathroom	sun_afcoljnjfoxjtgja.tif	324390.557565	324390.807667	324391.637576	6.671950e-01	10	none	NaN	NaN
102	3	26	60	bathroom	sun_azqyogdvyhahyram.tif	324392.409067	324392.659400	324393.488943	8.173139e-01	50	none	NaN	NaN
102	3	27	22	bathroom	sun_agguqiubmwhqqunb.tif	324394.260559	324394.510822	324395.340387	7.672743e-01	12	39	324397.277081	1
102	3	28	55	bathroom	sun_avhrdrntsqrjzccq.tif	324398.080345	324398.330512	324399.160315	7.172347e-01	45	none	NaN	NaN
102	3	29	52	bathroom	sun_aunuadmjocsddsrl.tif	324399.931841	324400.182033	324401.011821	7.005548e-01	42	none	NaN	NaN
102	3	30	14	bathroom	sun_abapwbhyhkfixyex.tif	324401.783339	324402.033512	324402.863188	8.006340e-01	4	none	NaN	NaN
102	3	31	35	bathroom	sun_alotolagknyrgtsk.tif	324403.634880	324403.885042	324404.714833	7.839542e-01	25	39	324405.549105	1
102	3	32	11	bathroom	labelme_sfxiulhjbhlyiyt.tif	324406.337056	324406.587260	324407.417457	7.339145e-01	1	none	NaN	NaN
102	3	33	48	bathroom	sun_aqrpegblszgcoujh.tif	324408.188551	324408.438926	324409.268510	8.339938e-01	38	none	NaN	NaN
102	3	34	28	bathroom	sun_ahijqszoswveeyji.tif	324410.040076	324410.290187	324411.120024	7.505944e-01	18	39	324412.037045	1
102	3	35	57	bathroom	sun_axldvoqbuvuggfmq.tif	324412.825687	324413.075800	324413.905572	8.006340e-01	47	none	NaN	NaN
102	3	36	26	bathroom	sun_ahaulkltgpkeeemi.tif	324414.677201	324414.927285	324415.757169	7.339145e-01	16	none	NaN	NaN
102	3	37	23	bathroom	sun_aghyqhbptboemmoq.tif	324416.528662	324416.778995	324417.608616	8.173139e-01	13	none	NaN	NaN
102	3	38	47	bathroom	sun_apynckhmoftszqoq.tif	324418.380198	324418.630281	324419.460222	7.505944e-01	37	none	NaN	NaN
102	3	39	42	bathroom	sun_apeeialkgkuxddgh.tif	324420.231701	324420.481982	324421.311563	7.672743e-01	32	39	324422.085113	1
102	3	40	25	bathroom	sun_agyqfjcfkdcydepw.tif	324422.883855	324423.134203	324423.963905	6.838749e-01	15	none	NaN	NaN
102	3	41	32	bathroom	sun_aleqenyvunhactkl.tif	324424.735342	324424.985598	324425.815182	7.505944e-01	22	39	324427.173293	1
102	3	42	12	bathroom	sun_aapitsgbtktqubfy.tif	324427.971317	324428.221589	324429.051327	8.006340e-01	2	none	NaN	NaN
102	3	43	36	bathroom	sun_ambriybtogmepttm.tif	324429.822808	324430.073112	324430.902637	7.005548e-01	26	none	NaN	NaN
102	3	44	44	bathroom	sun_apkruvsevgegsdwp.tif	324431.674302	324431.924617	324432.754331	8.506737e-01	34	none	NaN	NaN
102	3	45	56	bathroom	sun_awnqiikzaispgmwo.tif	324433.525822	324433.776130	324434.605793	6.671950e-01	46	none	NaN	NaN
102	3	46	15	bathroom	sun_abjtwfukuwddzted.tif	324435.377327	324435.627696	324436.457178	8.506737e-01	5	none	NaN	NaN
102	3	47	16	bathroom	sun_acduarbnmmoglmiv.tif	324437.228830	324437.479022	324438.308725	7.005548e-01	6	none	NaN	NaN
102	3	48	43	bathroom	sun_apjevzvycyhuqghb.tif	324439.080343	324439.330560	324440.160331	7.839542e-01	33	none	NaN	NaN
102	3	49	40	bathroom	sun_aofnryafpsjimzsb.tif	324440.931862	324441.182118	324442.011831	6.671950e-01	30	none	NaN	NaN
102	3	50	41	bathroom	sun_aoybiabnpadelefl.tif	324442.783349	324443.033690	324443.863384	6.671950e-01	31	none	NaN	NaN
102	3	51	27	bathroom	sun_ahcvzmoyaycdoftf.tif	324444.634841	324444.885161	324445.714692	8.339938e-01	17	37	324447.036849	1
102	3	52	36	bathroom	sun_ambriybtogmepttm.tif	324447.837462	324448.087269	324448.917390	8.339938e-01	26	none	NaN	NaN
102	3	53	37	bathroom	sun_amzlamotzwfkwjco.tif	324449.688963	324449.939285	324450.768886	8.006340e-01	27	none	NaN	NaN
102	3	54	14	bathroom	sun_abapwbhyhkfixyex.tif	324451.540457	324451.790757	324452.620325	8.006340e-01	4	none	NaN	NaN
102	3	55	40	bathroom	sun_aofnryafpsjimzsb.tif	324453.391972	324453.642205	324454.471819	7.172347e-01	30	none	NaN	NaN
102	3	56	41	bathroom	sun_aoybiabnpadelefl.tif	324455.243479	324455.493838	324456.323426	6.671950e-01	31	none	NaN	NaN
102	3	57	39	bathroom	sun_anryaplzeujmzfkd.tif	324457.094978	324457.345243	324458.174981	6.838749e-01	29	none	NaN	NaN
102	3	58	43	bathroom	sun_apjevzvycyhuqghb.tif	324458.946486	324459.196790	324460.026359	7.005548e-01	33	none	NaN	NaN
102	3	59	60	bathroom	sun_azqyogdvyhahyram.tif	324460.797993	324461.048191	324461.877887	7.005548e-01	50	39	324462.885128	1
102	3	60	38	bathroom	sun_anhioqovhscjqqwb.tif	324463.683670	324463.933959	324464.763711	7.172347e-01	28	none	NaN	NaN
102	3	61	12	bathroom	sun_aapitsgbtktqubfy.tif	324465.535168	324465.785411	324466.615091	7.339145e-01	2	none	NaN	NaN
102	3	62	11	bathroom	labelme_sfxiulhjbhlyiyt.tif	324467.386680	324467.636776	324468.466586	7.672743e-01	1	none	NaN	NaN
102	3	63	30	bathroom	sun_ajlawzvmubibwbpy.tif	324469.238195	324469.488366	324470.318244	8.173139e-01	20	none	NaN	NaN
102	3	64	28	bathroom	sun_ahijqszoswveeyji.tif	324471.089700	324471.339978	324472.169721	6.505152e-01	18	none	NaN	NaN
102	3	65	48	bathroom	sun_aqrpegblszgcoujh.tif	324472.941189	324473.191519	324474.021054	7.505944e-01	38	none	NaN	NaN
102	3	66	25	bathroom	sun_agyqfjcfkdcydepw.tif	324474.792674	324475.042947	324475.872637	7.505944e-01	15	none	NaN	NaN
102	3	67	23	bathroom	sun_aghyqhbptboemmoq.tif	324476.644200	324476.894427	324477.724165	7.005548e-01	13	none	NaN	NaN
102	3	68	16	bathroom	sun_acduarbnmmoglmiv.tif	324478.495725	324478.745993	324479.575771	7.339145e-01	6	none	NaN	NaN
102	3	69	58	bathroom	sun_axxbkopsgyouuebh.tif	324480.347211	324480.597399	324481.427242	8.339938e-01	48	none	NaN	NaN
102	3	70	21	bathroom	sun_aggnnqpdorgxpvce.tif	324482.198734	324482.448802	324483.278668	8.173139e-01	11	none	NaN	NaN
102	3	71	26	bathroom	sun_ahaulkltgpkeeemi.tif	324484.050242	324484.300512	324485.130118	8.006340e-01	16	none	NaN	NaN
102	3	72	34	bathroom	sun_alkosphxlxwjwgjd.tif	324485.901760	324486.152071	324486.981810	6.505152e-01	24	none	NaN	NaN
102	3	73	52	bathroom	sun_aunuadmjocsddsrl.tif	324487.753244	324488.003602	324488.833177	6.671950e-01	42	none	NaN	NaN
102	3	74	15	bathroom	sun_abjtwfukuwddzted.tif	324489.604746	324489.854853	324490.684717	7.672743e-01	5	none	NaN	NaN
102	3	75	13	bathroom	sun_aavhrsfjbserjtht.tif	324491.456256	324491.706361	324492.536210	7.672743e-01	3	none	NaN	NaN
102	3	76	46	bathroom	sun_apmqjbnwghzuhhzh.tif	324493.307782	324493.557996	324494.387833	8.339938e-01	36	none	NaN	NaN
102	3	77	59	bathroom	sun_axyrejkiiaqiurjk.tif	324495.159256	324495.409399	324496.239119	7.839542e-01	49	none	NaN	NaN
102	3	78	42	bathroom	sun_apeeialkgkuxddgh.tif	324497.010756	324497.260866	324498.090598	7.839542e-01	32	none	NaN	NaN
102	3	79	24	bathroom	sun_agrwbmhcpmfuwmsg.tif	324498.862266	324499.112528	324499.942229	8.006340e-01	14	none	NaN	NaN
102	3	80	35	bathroom	sun_alotolagknyrgtsk.tif	324500.713780	324500.964072	324501.793753	7.172347e-01	25	37	324506.101181	1
102	3	81	57	bathroom	sun_axldvoqbuvuggfmq.tif	324506.902149	324507.152427	324507.982160	8.173139e-01	47	none	NaN	NaN
102	3	82	32	bathroom	sun_aleqenyvunhactkl.tif	324508.753641	324509.003457	324509.833521	7.339145e-01	22	none	NaN	NaN
102	3	83	55	bathroom	sun_avhrdrntsqrjzccq.tif	324510.605144	324510.855460	324511.685129	7.839542e-01	45	37	324513.413172	1
102	3	84	22	bathroom	sun_agguqiubmwhqqunb.tif	324514.208096	324514.458450	324515.288063	6.505152e-01	12	none	NaN	NaN
102	3	85	45	bathroom	sun_apkxzenqapsujocq.tif	324516.059590	324516.309759	324517.139443	7.339145e-01	35	none	NaN	NaN
102	3	86	20	bathroom	sun_afcoljnjfoxjtgja.tif	324517.911076	324518.161359	324518.991047	7.839542e-01	10	39	324520.556908	0
102	3	87	19	bathroom	sun_aclfzgynxzxlbepz.tif	324521.347219	324521.597308	324522.427204	7.505944e-01	9	none	NaN	NaN
102	3	88	31	bathroom	sun_akiytfaagpdsphgz.tif	324523.198728	324523.448987	324524.278687	7.672743e-01	21	none	NaN	NaN
102	3	89	47	bathroom	sun_apynckhmoftszqoq.tif	324525.050253	324525.300405	324526.130153	8.506737e-01	37	none	NaN	NaN
102	3	90	17	bathroom	sun_acegryoqftbzowsg.tif	324526.901760	324527.152106	324527.981591	6.838749e-01	7	none	NaN	NaN
102	3	91	33	bathroom	sun_aljolscmmzydegqp.tif	324528.753280	324529.003462	324529.833255	7.172347e-01	23	none	NaN	NaN
102	3	92	51	bathroom	sun_atstyziqcmkahyxk.tif	324530.604736	324530.854901	324531.684660	6.671950e-01	41	37	324533.068772	1
102	3	93	54	bathroom	sun_auzqhkafidnkrwmo.tif	324533.857421	324534.107639	324534.937293	8.173139e-01	44	none	NaN	NaN
102	3	94	18	bathroom	sun_acgyywnybuveqsro.tif	324535.708906	324535.959184	324536.788851	7.005548e-01	8	none	NaN	NaN
102	3	95	50	bathroom	sun_aspsyogrekjtfozg.tif	324537.560411	324537.810710	324538.640240	7.172347e-01	40	none	NaN	NaN
102	3	96	53	bathroom	sun_ausgutylgojavyoq.tif	324539.411908	324539.662137	324540.491834	7.672743e-01	43	none	NaN	NaN
102	3	97	56	bathroom	sun_awnqiikzaispgmwo.tif	324541.263413	324541.513652	324542.343386	8.173139e-01	46	39	324543.484903	0
102	3	98	49	bathroom	sun_asfwthctfqerjvxr.tif	324544.282558	324544.532864	324545.362515	7.672743e-01	39	none	NaN	NaN
102	3	99	44	bathroom	sun_apkruvsevgegsdwp.tif	324546.134106	324546.383846	324547.214089	6.505152e-01	34	none	NaN	NaN
102	3	100	29	bathroom	sun_ahqjwnzgolcaoidx.tif	324547.985588	324548.235772	324549.065610	8.339938e-01	19	none	NaN	NaN
102	4	1	68	kitchen	sun_aaxxjlsuzvqlgylf.tif	324560.662543	324560.912874	324561.608989	7.172347e-01	58	none	NaN	NaN
102	4	2	77	kitchen	sun_acxkpeoqbwcxfvip.tif	324562.380596	324562.630945	324563.327123	7.005548e-01	67	none	NaN	NaN
102	4	3	79	kitchen	sun_admlmbcdswaszruo.tif	324564.098678	324564.348762	324565.045105	8.173139e-01	69	none	NaN	NaN
102	4	4	86	kitchen	sun_aggjlwcdjsjcaemh.tif	324565.816720	324566.066981	324566.763187	7.005548e-01	76	none	NaN	NaN
102	4	5	94	kitchen	sun_ahywdevtimnqcsln.tif	324567.534784	324567.784883	324568.481261	7.005548e-01	84	none	NaN	NaN
102	4	6	95	kitchen	sun_aixorpehvfykdynp.tif	324569.252838	324569.503141	324570.199307	6.671950e-01	85	none	NaN	NaN
102	4	7	75	kitchen	sun_acgtpgfybqjmzeyw.tif	324570.970889	324571.221213	324571.917359	7.505944e-01	65	none	NaN	NaN
102	4	8	88	kitchen	sun_agubuxuukhzyzpdp.tif	324572.688977	324572.939109	324573.635372	6.671950e-01	78	none	NaN	NaN
102	4	9	85	kitchen	sun_afuyedyxivkhecmu.tif	324574.407015	324574.657325	324575.353567	7.839542e-01	75	37	324576.548981	1
102	4	10	104	kitchen	sun_auticobqsbwgoppi.tif	324577.342741	324577.593045	324578.289163	7.672743e-01	94	39	324579.332932	1
102	4	11	72	kitchen	sun_abpwyqmlzafvklqo.tif	324580.128346	324580.378518	324581.074949	7.839542e-01	62	none	NaN	NaN
102	4	12	66	kitchen	sun_aapllqyqlykszopd.tif	324581.846408	324582.096649	324582.792846	7.172347e-01	56	none	NaN	NaN
102	4	13	69	kitchen	sun_abdenxonkemggwsq.tif	324583.564477	324583.814740	324584.510914	8.173139e-01	59	39	324585.588945	1
102	4	14	108	kitchen	sun_aymvwlarqodbwuoc.tif	324586.383421	324586.633656	324587.329902	6.838749e-01	98	none	NaN	NaN
102	4	15	105	kitchen	sun_avszsnwsbuqfgzbn.tif	324588.101508	324588.351822	324589.047909	7.505944e-01	95	none	NaN	NaN
102	4	16	78	kitchen	sun_adgqasybjyktddhj.tif	324589.819558	324590.069861	324590.766087	8.006340e-01	68	none	NaN	NaN
102	4	17	101	kitchen	sun_aqeaevwwwjoqhzvl.tif	324591.537647	324591.787927	324592.484248	8.506737e-01	91	39	324593.324903	1
102	4	18	99	kitchen	sun_akcjzhbbjlbogpdi.tif	324594.123071	324594.373263	324595.069487	6.838749e-01	89	none	NaN	NaN
102	4	19	90	kitchen	sun_ahdycvpopffkzzsu.tif	324595.841131	324596.091404	324596.787598	7.505944e-01	80	none	NaN	NaN
102	4	20	70	kitchen	sun_abdxkyyxwfskuaqb.tif	324597.559180	324597.809270	324598.505632	8.339938e-01	60	none	NaN	NaN
102	4	21	81	kitchen	sun_aehawpgmrlhlvcow.tif	324599.277264	324599.527564	324600.223715	8.006340e-01	71	39	324601.260950	1
102	4	22	106	kitchen	sun_awcpdzzznmweyyhv.tif	324602.062863	324602.313038	324603.009375	8.006340e-01	96	none	NaN	NaN
102	4	23	93	kitchen	sun_ahspylgoovwmwvgk.tif	324603.780912	324604.031075	324604.727452	6.505152e-01	83	none	NaN	NaN
102	4	24	97	kitchen	sun_ajkqhtgcbgpcwrwn.tif	324605.498976	324605.749204	324606.445430	7.172347e-01	87	none	NaN	NaN
102	4	25	91	kitchen	sun_ahljzhgcdpomplvg.tif	324607.217072	324607.467365	324608.163484	7.339145e-01	81	none	NaN	NaN
102	4	26	96	kitchen	sun_ajcbwwvdlsvjyzje.tif	324608.935111	324609.185413	324609.881500	8.173139e-01	86	none	NaN	NaN
102	4	27	62	kitchen	labelme_kxvouciolcpqplr.tif	324610.653177	324610.903483	324611.599701	7.839542e-01	52	none	NaN	NaN
102	4	28	109	kitchen	sun_aypmqwcualkenuoe.tif	324612.371235	324612.621418	324613.317628	7.672743e-01	99	37	324616.604724	1
102	4	29	76	kitchen	sun_acwjdupvyjsugpay.tif	324617.408668	324617.658937	324618.355268	8.006340e-01	66	none	NaN	NaN
102	4	30	87	kitchen	sun_agorklincwxrdtga.tif	324619.126750	324619.376853	324620.073188	8.506737e-01	77	none	NaN	NaN
102	4	31	102	kitchen	sun_auaiucuqpdausiva.tif	324620.844791	324621.095090	324621.791397	8.339938e-01	92	none	NaN	NaN
102	4	32	110	kitchen	sun_azmutvzbxypaceni.tif	324622.562848	324622.813094	324623.509354	7.672743e-01	100	39	324624.341008	1
102	4	33	98	kitchen	sun_akchetnepxlcxhsu.tif	324625.131611	324625.381885	324626.078044	6.671950e-01	88	none	NaN	NaN
102	4	34	100	kitchen	sun_amjjdeyrggfqgmom.tif	324626.849666	324627.099969	324627.796274	7.339145e-01	90	37	324629.284876	1
102	4	35	107	kitchen	sun_axyyrmzcupyhlivc.tif	324630.085654	324630.335905	324631.032205	7.672743e-01	97	none	NaN	NaN
102	4	36	65	kitchen	sun_aamedkxepzlwuxes.tif	324631.803609	324632.053873	324632.750147	8.173139e-01	55	none	NaN	NaN
102	4	37	64	kitchen	sun_aadbddgrdsjugojn.tif	324633.521757	324633.772057	324634.468318	7.339145e-01	54	37	324635.884708	1
102	4	38	89	kitchen	sun_agzzivivdpnawacl.tif	324636.674318	324636.924573	324637.620740	8.339938e-01	79	none	NaN	NaN
102	4	39	103	kitchen	sun_aunzlwrbjumxhwdj.tif	324638.392375	324638.642538	324639.338923	6.838749e-01	93	none	NaN	NaN
102	4	40	71	kitchen	sun_abftihopvusyfakt.tif	324640.110430	324640.360720	324641.056939	7.505944e-01	61	none	NaN	NaN
102	4	41	83	kitchen	sun_aeqdocilnnpuvuhx.tif	324641.828502	324642.078794	324642.775072	6.505152e-01	73	none	NaN	NaN
102	4	42	73	kitchen	sun_abrcnpqqhmjwekyf.tif	324643.546596	324643.796918	324644.493206	6.505152e-01	63	none	NaN	NaN
102	4	43	84	kitchen	sun_aexklacwqwezaorf.tif	324645.264646	324645.514915	324646.211151	7.172347e-01	74	none	NaN	NaN
102	4	44	92	kitchen	sun_ahpczsiumwwocjkv.tif	324646.982695	324647.232917	324647.929127	7.672743e-01	82	none	NaN	NaN
102	4	45	82	kitchen	sun_aenotlpyftoioydp.tif	324648.700753	324648.951040	324649.647241	8.173139e-01	72	39	324650.517111	1
102	4	46	80	kitchen	sun_aegoxogugdkwpmpj.tif	324651.319560	324651.569694	324652.265960	6.838749e-01	70	none	NaN	NaN
102	4	47	61	kitchen	labelme_brsyyvweiuaazfr.tif	324653.037619	324653.287924	324653.984101	7.172347e-01	51	none	NaN	NaN
102	4	48	63	kitchen	labelme_rykdqxenmhulbdn.tif	324654.755672	324655.005933	324655.702278	8.173139e-01	53	39	324658.132839	0
102	4	49	67	kitchen	sun_aarfiyshqohlwkmo.tif	324658.925752	324659.176044	324659.872332	7.005548e-01	57	none	NaN	NaN
102	4	50	74	kitchen	sun_acfmftudsenhrfhy.tif	324660.643804	324660.894085	324661.590329	7.339145e-01	64	none	NaN	NaN
102	4	51	91	kitchen	sun_ahljzhgcdpomplvg.tif	324662.361874	324662.612156	324663.308325	7.839542e-01	81	none	NaN	NaN
102	4	52	85	kitchen	sun_afuyedyxivkhecmu.tif	324664.079918	324664.330100	324665.027045	8.339938e-01	75	none	NaN	NaN
102	4	53	78	kitchen	sun_adgqasybjyktddhj.tif	324665.798008	324666.048136	324666.744468	6.671950e-01	68	none	NaN	NaN
102	4	54	92	kitchen	sun_ahpczsiumwwocjkv.tif	324667.516048	324667.765868	324668.462442	6.671950e-01	82	none	NaN	NaN
102	4	55	87	kitchen	sun_agorklincwxrdtga.tif	324669.234139	324669.484212	324670.180712	8.173139e-01	77	none	NaN	NaN
102	4	56	102	kitchen	sun_auaiucuqpdausiva.tif	324670.952199	324671.202290	324671.898754	7.339145e-01	92	none	NaN	NaN
102	4	57	66	kitchen	sun_aapllqyqlykszopd.tif	324672.670238	324672.920406	324673.616718	8.006340e-01	56	39	324674.868916	1
102	4	58	106	kitchen	sun_awcpdzzznmweyyhv.tif	324675.672704	324675.922979	324676.619242	7.005548e-01	96	none	NaN	NaN
102	4	59	64	kitchen	sun_aadbddgrdsjugojn.tif	324677.390762	324677.641052	324678.337220	7.172347e-01	54	none	NaN	NaN
102	4	60	80	kitchen	sun_aegoxogugdkwpmpj.tif	324679.108818	324679.358938	324680.055650	6.671950e-01	70	none	NaN	NaN
102	4	61	73	kitchen	sun_abrcnpqqhmjwekyf.tif	324680.826881	324681.077193	324681.773345	7.672743e-01	63	none	NaN	NaN
102	4	62	105	kitchen	sun_avszsnwsbuqfgzbn.tif	324682.544957	324682.795141	324683.491503	7.339145e-01	95	none	NaN	NaN
102	4	63	62	kitchen	labelme_kxvouciolcpqplr.tif	324684.263012	324684.513130	324685.209431	7.172347e-01	52	none	NaN	NaN
102	4	64	89	kitchen	sun_agzzivivdpnawacl.tif	324685.981065	324686.231362	324686.927466	6.671950e-01	79	none	NaN	NaN
102	4	65	103	kitchen	sun_aunzlwrbjumxhwdj.tif	324687.699151	324687.949217	324688.645717	8.339938e-01	93	37	324690.772957	1
102	4	66	108	kitchen	sun_aymvwlarqodbwuoc.tif	324691.568930	324691.819015	324692.515343	8.339938e-01	98	none	NaN	NaN
102	4	67	72	kitchen	sun_abpwyqmlzafvklqo.tif	324693.287021	324693.537188	324694.233557	7.505944e-01	62	none	NaN	NaN
102	4	68	70	kitchen	sun_abdxkyyxwfskuaqb.tif	324695.005112	324695.255225	324695.951581	7.005548e-01	60	none	NaN	NaN
102	4	69	68	kitchen	sun_aaxxjlsuzvqlgylf.tif	324696.723129	324696.973367	324697.669694	6.838749e-01	58	37	324698.900946	1
102	4	70	110	kitchen	sun_azmutvzbxypaceni.tif	324699.692214	324699.942463	324700.638709	7.505944e-01	100	none	NaN	NaN
102	4	71	107	kitchen	sun_axyyrmzcupyhlivc.tif	324701.410288	324701.660484	324702.356889	7.005548e-01	97	none	NaN	NaN
102	4	72	97	kitchen	sun_ajkqhtgcbgpcwrwn.tif	324703.128347	324703.378627	324704.074906	7.339145e-01	87	none	NaN	NaN
102	4	73	65	kitchen	sun_aamedkxepzlwuxes.tif	324704.846395	324705.096690	324705.793026	7.672743e-01	55	39	324707.116842	1
102	4	74	99	kitchen	sun_akcjzhbbjlbogpdi.tif	324707.915574	324708.165780	324708.862168	6.838749e-01	89	none	NaN	NaN
102	4	75	94	kitchen	sun_ahywdevtimnqcsln.tif	324709.633646	324709.883942	324710.580151	7.839542e-01	84	none	NaN	NaN
102	4	76	83	kitchen	sun_aeqdocilnnpuvuhx.tif	324711.351681	324711.601933	324712.298210	8.339938e-01	73	none	NaN	NaN
102	4	77	86	kitchen	sun_aggjlwcdjsjcaemh.tif	324713.069770	324713.319949	324714.016170	6.671950e-01	76	none	NaN	NaN
102	4	78	95	kitchen	sun_aixorpehvfykdynp.tif	324714.787813	324715.038062	324715.734281	7.672743e-01	85	none	NaN	NaN
102	4	79	74	kitchen	sun_acfmftudsenhrfhy.tif	324716.505891	324716.756240	324717.452474	7.505944e-01	64	none	NaN	NaN
102	4	80	77	kitchen	sun_acxkpeoqbwcxfvip.tif	324718.223990	324718.474125	324719.170404	7.672743e-01	67	none	NaN	NaN
102	4	81	79	kitchen	sun_admlmbcdswaszruo.tif	324719.942019	324720.192134	324720.888531	8.006340e-01	69	none	NaN	NaN
102	4	82	84	kitchen	sun_aexklacwqwezaorf.tif	324721.660085	324721.910209	324722.606479	8.506737e-01	74	none	NaN	NaN
102	4	83	88	kitchen	sun_agubuxuukhzyzpdp.tif	324723.378150	324723.628371	324724.324681	8.006340e-01	78	none	NaN	NaN
102	4	84	109	kitchen	sun_aypmqwcualkenuoe.tif	324725.096132	324725.346425	324726.042606	8.506737e-01	99	none	NaN	NaN
102	4	85	63	kitchen	labelme_rykdqxenmhulbdn.tif	324726.814251	324727.064566	324727.760645	6.505152e-01	53	none	NaN	NaN
102	4	86	101	kitchen	sun_aqeaevwwwjoqhzvl.tif	324728.532340	324728.782633	324729.478933	8.339938e-01	91	none	NaN	NaN
102	4	87	93	kitchen	sun_ahspylgoovwmwvgk.tif	324730.250376	324730.500548	324731.196821	7.839542e-01	83	none	NaN	NaN
102	4	88	81	kitchen	sun_aehawpgmrlhlvcow.tif	324731.968466	324732.218704	324732.914985	7.339145e-01	71	none	NaN	NaN
102	4	89	90	kitchen	sun_ahdycvpopffkzzsu.tif	324733.686523	324733.936772	324734.632971	8.339938e-01	80	none	NaN	NaN
102	4	90	98	kitchen	sun_akchetnepxlcxhsu.tif	324735.404586	324735.654910	324736.351085	7.839542e-01	88	none	NaN	NaN
102	4	91	69	kitchen	sun_abdenxonkemggwsq.tif	324737.122662	324737.372918	324738.069242	6.838749e-01	59	none	NaN	NaN
102	4	92	96	kitchen	sun_ajcbwwvdlsvjyzje.tif	324738.840731	324739.090955	324739.787247	6.838749e-01	86	none	NaN	NaN
102	4	93	75	kitchen	sun_acgtpgfybqjmzeyw.tif	324740.558770	324740.809018	324741.505370	8.173139e-01	65	none	NaN	NaN
102	4	94	76	kitchen	sun_acwjdupvyjsugpay.tif	324742.276862	324742.527073	324743.223255	7.172347e-01	66	none	NaN	NaN
102	4	95	104	kitchen	sun_auticobqsbwgoppi.tif	324743.994907	324744.244986	324744.941491	8.006340e-01	94	none	NaN	NaN
102	4	96	82	kitchen	sun_aenotlpyftoioydp.tif	324745.712946	324745.963253	324746.659534	7.839542e-01	72	none	NaN	NaN
102	4	97	61	kitchen	labelme_brsyyvweiuaazfr.tif	324747.431917	324747.697876	324748.378496	7.005548e-01	51	none	NaN	NaN
102	4	98	71	kitchen	sun_abftihopvusyfakt.tif	324749.165755	324749.416030	324750.112235	6.505152e-01	61	none	NaN	NaN
102	4	99	67	kitchen	sun_aarfiyshqohlwkmo.tif	324750.883839	324751.134142	324751.830414	7.005548e-01	57	none	NaN	NaN
102	4	100	100	kitchen	sun_amjjdeyrggfqgmom.tif	324752.601892	324752.852202	324753.548505	7.505944e-01	90	none	NaN	NaN
102	5	1	47	bathroom	sun_apynckhmoftszqoq.tif	324765.145430	324765.395645	324766.108654	7.672743e-01	37	none	NaN	NaN
102	5	2	55	bathroom	sun_avhrdrntsqrjzccq.tif	324766.880169	324767.130248	324767.843274	6.505152e-01	45	39	324769.164622	1
102	5	3	45	bathroom	sun_apkxzenqapsujocq.tif	324769.966003	324770.215825	324770.929140	7.339145e-01	35	none	NaN	NaN
102	5	4	41	bathroom	sun_aoybiabnpadelefl.tif	324771.700760	324771.950924	324772.664030	7.172347e-01	31	none	NaN	NaN
102	5	5	21	bathroom	sun_aggnnqpdorgxpvce.tif	324773.435487	324773.685798	324774.398766	7.172347e-01	11	none	NaN	NaN
102	5	6	36	bathroom	sun_ambriybtogmepttm.tif	324775.170241	324775.420418	324776.133350	8.506737e-01	26	none	NaN	NaN
102	5	7	24	bathroom	sun_agrwbmhcpmfuwmsg.tif	324776.904973	324777.155197	324777.868155	6.838749e-01	14	none	NaN	NaN
102	5	8	37	bathroom	sun_amzlamotzwfkwjco.tif	324778.639727	324778.889959	324779.602951	7.005548e-01	27	none	NaN	NaN
102	5	9	20	bathroom	sun_afcoljnjfoxjtgja.tif	324780.374466	324780.624705	324781.337654	7.172347e-01	10	none	NaN	NaN
102	5	10	40	bathroom	sun_aofnryafpsjimzsb.tif	324782.109228	324782.359412	324783.072464	7.505944e-01	30	none	NaN	NaN
102	5	11	42	bathroom	sun_apeeialkgkuxddgh.tif	324783.843950	324784.094289	324784.807232	8.173139e-01	32	none	NaN	NaN
102	5	12	13	bathroom	sun_aavhrsfjbserjtht.tif	324785.578692	324785.829066	324786.541892	8.173139e-01	3	none	NaN	NaN
102	5	13	11	bathroom	labelme_sfxiulhjbhlyiyt.tif	324787.313439	324787.563655	324788.276711	7.339145e-01	1	none	NaN	NaN
102	5	14	34	bathroom	sun_alkosphxlxwjwgjd.tif	324789.048204	324789.298303	324790.011291	6.505152e-01	24	37	324791.340876	1
102	5	15	51	bathroom	sun_atstyziqcmkahyxk.tif	324792.134021	324792.384195	324793.097283	7.339145e-01	41	39	324794.044608	1
102	5	16	32	bathroom	sun_aleqenyvunhactkl.tif	324794.836222	324795.086468	324795.799387	7.839542e-01	22	none	NaN	NaN
102	5	17	26	bathroom	sun_ahaulkltgpkeeemi.tif	324796.570989	324796.821203	324797.534242	8.006340e-01	16	none	NaN	NaN
102	5	18	33	bathroom	sun_aljolscmmzydegqp.tif	324798.305699	324798.556005	324799.268972	7.005548e-01	23	37	324800.660872	1
102	5	19	28	bathroom	sun_ahijqszoswveeyji.tif	324801.458269	324801.708508	324802.421532	7.005548e-01	18	none	NaN	NaN
102	5	20	19	bathroom	sun_aclfzgynxzxlbepz.tif	324803.193017	324803.443266	324804.156216	7.672743e-01	9	none	NaN	NaN
102	5	21	35	bathroom	sun_alotolagknyrgtsk.tif	324804.927770	324805.178115	324805.890989	7.172347e-01	25	none	NaN	NaN
102	5	22	58	bathroom	sun_axxbkopsgyouuebh.tif	324806.662477	324806.912692	324807.625694	8.506737e-01	48	none	NaN	NaN
102	5	23	27	bathroom	sun_ahcvzmoyaycdoftf.tif	324808.397235	324808.647557	324809.360427	7.172347e-01	17	none	NaN	NaN
102	5	24	23	bathroom	sun_aghyqhbptboemmoq.tif	324810.131991	324810.382244	324811.095251	8.173139e-01	13	none	NaN	NaN
102	5	25	56	bathroom	sun_awnqiikzaispgmwo.tif	324811.866751	324812.116932	324812.829920	8.173139e-01	46	none	NaN	NaN
102	5	26	15	bathroom	sun_abjtwfukuwddzted.tif	324813.601473	324813.851796	324814.564754	7.505944e-01	5	none	NaN	NaN
102	5	27	48	bathroom	sun_aqrpegblszgcoujh.tif	324815.336213	324815.586436	324816.299286	8.506737e-01	38	none	NaN	NaN
102	5	28	18	bathroom	sun_acgyywnybuveqsro.tif	324817.070976	324817.321335	324818.034073	8.173139e-01	8	none	NaN	NaN
102	5	29	60	bathroom	sun_azqyogdvyhahyram.tif	324818.805700	324819.055901	324819.768802	8.006340e-01	50	none	NaN	NaN
102	5	30	46	bathroom	sun_apmqjbnwghzuhhzh.tif	324820.540472	324820.790693	324821.503760	6.671950e-01	36	none	NaN	NaN
102	5	31	30	bathroom	sun_ajlawzvmubibwbpy.tif	324822.275206	324822.542064	324823.238460	6.671950e-01	20	none	NaN	NaN
102	5	32	31	bathroom	sun_akiytfaagpdsphgz.tif	324824.009933	324824.260251	324824.973200	8.339938e-01	21	none	NaN	NaN
102	5	33	16	bathroom	sun_acduarbnmmoglmiv.tif	324825.744684	324825.994897	324826.707762	6.671950e-01	6	none	NaN	NaN
102	5	34	29	bathroom	sun_ahqjwnzgolcaoidx.tif	324827.479445	324827.729757	324828.442710	7.005548e-01	19	39	324829.492724	1
102	5	35	49	bathroom	sun_asfwthctfqerjvxr.tif	324830.281706	324830.531932	324831.244926	7.672743e-01	39	none	NaN	NaN
102	5	36	43	bathroom	sun_apjevzvycyhuqghb.tif	324832.016443	324832.266750	324832.979597	8.006340e-01	33	none	NaN	NaN
102	5	37	22	bathroom	sun_agguqiubmwhqqunb.tif	324833.751204	324834.001285	324834.714394	7.005548e-01	12	none	NaN	NaN
102	5	38	17	bathroom	sun_acegryoqftbzowsg.tif	324835.485969	324835.736244	324836.449220	6.671950e-01	7	none	NaN	NaN
102	5	39	44	bathroom	sun_apkruvsevgegsdwp.tif	324837.220718	324837.470972	324838.183967	7.672743e-01	34	39	324839.524831	1
102	5	40	52	bathroom	sun_aunuadmjocsddsrl.tif	324840.323221	324840.573381	324841.286495	8.006340e-01	42	none	NaN	NaN
102	5	41	59	bathroom	sun_axyrejkiiaqiurjk.tif	324842.057942	324842.308180	324843.021038	8.006340e-01	49	none	NaN	NaN
102	5	42	53	bathroom	sun_ausgutylgojavyoq.tif	324843.792700	324844.042988	324844.755913	7.172347e-01	43	none	NaN	NaN
102	5	43	12	bathroom	sun_aapitsgbtktqubfy.tif	324845.527431	324845.777770	324846.490692	6.505152e-01	2	none	NaN	NaN
102	5	44	25	bathroom	sun_agyqfjcfkdcydepw.tif	324847.262196	324847.512544	324848.225317	7.672743e-01	15	none	NaN	NaN
102	5	45	14	bathroom	sun_abapwbhyhkfixyex.tif	324848.996916	324849.247106	324849.960058	7.505944e-01	4	none	NaN	NaN
102	5	46	54	bathroom	sun_auzqhkafidnkrwmo.tif	324850.731664	324850.981972	324851.694868	8.006340e-01	44	none	NaN	NaN
102	5	47	39	bathroom	sun_anryaplzeujmzfkd.tif	324852.466407	324852.716598	324853.429548	7.839542e-01	29	none	NaN	NaN
102	5	48	38	bathroom	sun_anhioqovhscjqqwb.tif	324854.201145	324854.451359	324855.164432	6.838749e-01	28	none	NaN	NaN
102	5	49	57	bathroom	sun_axldvoqbuvuggfmq.tif	324855.935922	324856.186194	324856.899111	7.839542e-01	47	none	NaN	NaN
102	5	50	50	bathroom	sun_aspsyogrekjtfozg.tif	324857.670644	324857.937495	324858.633913	8.006340e-01	40	none	NaN	NaN
102	5	51	50	bathroom	sun_aspsyogrekjtfozg.tif	324859.405390	324859.655530	324860.368610	7.672743e-01	40	none	NaN	NaN
102	5	52	58	bathroom	sun_axxbkopsgyouuebh.tif	324861.140131	324861.390284	324862.103308	8.339938e-01	48	none	NaN	NaN
102	5	53	13	bathroom	sun_aavhrsfjbserjtht.tif	324862.874879	324863.125220	324863.838110	8.339938e-01	3	none	NaN	NaN
102	5	54	28	bathroom	sun_ahijqszoswveeyji.tif	324864.609627	324864.859970	324865.572877	7.505944e-01	18	none	NaN	NaN
102	5	55	31	bathroom	sun_akiytfaagpdsphgz.tif	324866.344350	324866.594533	324867.307631	7.505944e-01	21	none	NaN	NaN
102	5	56	14	bathroom	sun_abapwbhyhkfixyex.tif	324868.079101	324868.329398	324869.042186	8.339938e-01	4	none	NaN	NaN
102	5	57	26	bathroom	sun_ahaulkltgpkeeemi.tif	324869.813852	324870.064096	324870.777141	7.339145e-01	16	none	NaN	NaN
102	5	58	45	bathroom	sun_apkxzenqapsujocq.tif	324871.548600	324871.798903	324872.511747	8.173139e-01	35	none	NaN	NaN
102	5	59	52	bathroom	sun_aunuadmjocsddsrl.tif	324873.283350	324873.533651	324874.246520	7.839542e-01	42	none	NaN	NaN
102	5	60	15	bathroom	sun_abjtwfukuwddzted.tif	324875.018032	324875.268362	324875.981240	8.506737e-01	5	none	NaN	NaN
102	5	61	42	bathroom	sun_apeeialkgkuxddgh.tif	324876.752854	324877.002623	324877.715968	8.339938e-01	32	none	NaN	NaN
102	5	62	32	bathroom	sun_aleqenyvunhactkl.tif	324878.487563	324878.737785	324879.450794	8.339938e-01	22	none	NaN	NaN
102	5	63	34	bathroom	sun_alkosphxlxwjwgjd.tif	324880.222309	324880.472513	324881.185444	7.672743e-01	24	none	NaN	NaN
102	5	64	16	bathroom	sun_acduarbnmmoglmiv.tif	324881.957079	324882.206870	324882.920292	8.339938e-01	6	none	NaN	NaN
102	5	65	44	bathroom	sun_apkruvsevgegsdwp.tif	324883.691785	324883.941947	324884.654980	7.672743e-01	34	none	NaN	NaN
102	5	66	36	bathroom	sun_ambriybtogmepttm.tif	324885.426566	324885.676853	324886.389765	7.505944e-01	26	none	NaN	NaN
102	5	67	27	bathroom	sun_ahcvzmoyaycdoftf.tif	324887.161271	324887.411627	324888.124520	6.838749e-01	17	none	NaN	NaN
102	5	68	33	bathroom	sun_aljolscmmzydegqp.tif	324888.896024	324889.146195	324889.859104	8.173139e-01	23	39	324891.005011	1
102	5	69	49	bathroom	sun_asfwthctfqerjvxr.tif	324891.798386	324892.048751	324892.761464	7.005548e-01	39	none	NaN	NaN
102	5	70	46	bathroom	sun_apmqjbnwghzuhhzh.tif	324893.533153	324893.783362	324894.496409	6.671950e-01	36	39	324895.316723	1
102	5	71	60	bathroom	sun_azqyogdvyhahyram.tif	324896.118554	324896.368767	324897.081646	6.838749e-01	50	37	324898.804914	1
102	5	72	56	bathroom	sun_awnqiikzaispgmwo.tif	324899.604751	324899.854971	324900.568021	8.339938e-01	46	none	NaN	NaN
102	5	73	53	bathroom	sun_ausgutylgojavyoq.tif	324901.339475	324901.589618	324902.302756	7.839542e-01	43	none	NaN	NaN
102	5	74	12	bathroom	sun_aapitsgbtktqubfy.tif	324903.074221	324903.324511	324904.037308	7.839542e-01	2	none	NaN	NaN
102	5	75	38	bathroom	sun_anhioqovhscjqqwb.tif	324904.808965	324905.059255	324905.772047	6.838749e-01	28	none	NaN	NaN
102	5	76	47	bathroom	sun_apynckhmoftszqoq.tif	324906.543716	324906.793968	324907.506938	7.005548e-01	37	none	NaN	NaN
102	5	77	55	bathroom	sun_avhrdrntsqrjzccq.tif	324908.278442	324908.528609	324909.241726	6.838749e-01	45	none	NaN	NaN
102	5	78	29	bathroom	sun_ahqjwnzgolcaoidx.tif	324910.013204	324910.263401	324910.976332	8.339938e-01	19	none	NaN	NaN
102	5	79	20	bathroom	sun_afcoljnjfoxjtgja.tif	324911.747931	324911.998051	324912.711215	7.839542e-01	10	37	324913.988725	1
102	5	80	59	bathroom	sun_axyrejkiiaqiurjk.tif	324914.783738	324915.034114	324915.746809	6.505152e-01	49	none	NaN	NaN
102	5	81	39	bathroom	sun_anryaplzeujmzfkd.tif	324916.518475	324916.768765	324917.481705	7.172347e-01	29	none	NaN	NaN
102	5	82	18	bathroom	sun_acgyywnybuveqsro.tif	324918.253237	324918.503413	324919.216395	7.339145e-01	8	none	NaN	NaN
102	5	83	21	bathroom	sun_aggnnqpdorgxpvce.tif	324919.987959	324920.238181	324920.951140	7.005548e-01	11	none	NaN	NaN
102	5	84	37	bathroom	sun_amzlamotzwfkwjco.tif	324921.722725	324921.973017	324922.685976	7.172347e-01	27	37	324925.492784	0
102	5	85	11	bathroom	labelme_sfxiulhjbhlyiyt.tif	324926.293091	324926.543320	324927.256226	7.339145e-01	1	37	324928.156717	1
102	5	86	35	bathroom	sun_alotolagknyrgtsk.tif	324928.945277	324929.212140	324929.908446	7.505944e-01	25	37	324931.180694	1
102	5	87	30	bathroom	sun_ajlawzvmubibwbpy.tif	324931.981073	324932.231241	324932.944320	7.672743e-01	20	none	NaN	NaN
102	5	88	57	bathroom	sun_axldvoqbuvuggfmq.tif	324933.715798	324933.965960	324934.678920	6.838749e-01	47	none	NaN	NaN
102	5	89	22	bathroom	sun_agguqiubmwhqqunb.tif	324935.450535	324935.700870	324936.413618	6.671950e-01	12	none	NaN	NaN
102	5	90	19	bathroom	sun_aclfzgynxzxlbepz.tif	324937.185288	324937.435499	324938.148495	7.339145e-01	9	none	NaN	NaN
102	5	91	25	bathroom	sun_agyqfjcfkdcydepw.tif	324938.920037	324939.170159	324939.883324	6.671950e-01	15	37	324941.292860	1
102	5	92	43	bathroom	sun_apjevzvycyhuqghb.tif	324942.089276	324942.339435	324943.052347	6.671950e-01	33	none	NaN	NaN
102	5	93	54	bathroom	sun_auzqhkafidnkrwmo.tif	324943.824034	324944.074367	324944.787229	7.839542e-01	44	none	NaN	NaN
102	5	94	51	bathroom	sun_atstyziqcmkahyxk.tif	324945.558701	324945.808892	324946.521818	7.339145e-01	41	none	NaN	NaN
102	5	95	24	bathroom	sun_agrwbmhcpmfuwmsg.tif	324947.293492	324947.543742	324948.256588	6.838749e-01	14	none	NaN	NaN
102	5	96	23	bathroom	sun_aghyqhbptboemmoq.tif	324949.028245	324949.278398	324949.991372	7.005548e-01	13	39	324951.628640	1
102	5	97	40	bathroom	sun_aofnryafpsjimzsb.tif	324952.431006	324952.681319	324953.394214	6.505152e-01	30	none	NaN	NaN
102	5	98	41	bathroom	sun_aoybiabnpadelefl.tif	324954.165800	324954.415995	324955.129026	7.505944e-01	31	none	NaN	NaN
102	5	99	48	bathroom	sun_aqrpegblszgcoujh.tif	324955.900496	324956.150701	324956.863672	8.006340e-01	38	none	NaN	NaN
102	5	100	17	bathroom	sun_acegryoqftbzowsg.tif	324957.635253	324957.885496	324958.598544	8.173139e-01	7	none	NaN	NaN
102	6	1	64	kitchen	sun_aadbddgrdsjugojn.tif	324969.761786	324970.012070	324970.758292	8.506737e-01	54	none	NaN	NaN
102	6	2	81	kitchen	sun_aehawpgmrlhlvcow.tif	324971.529895	324971.780024	324972.526413	7.005548e-01	71	none	NaN	NaN
102	6	3	108	kitchen	sun_aymvwlarqodbwuoc.tif	324973.297975	324973.548266	324974.294434	6.838749e-01	98	none	NaN	NaN
102	6	4	65	kitchen	sun_aamedkxepzlwuxes.tif	324975.066108	324975.316305	324976.062638	8.173139e-01	55	none	NaN	NaN
102	6	5	87	kitchen	sun_agorklincwxrdtga.tif	324976.834205	324977.084479	324977.830784	8.173139e-01	77	none	NaN	NaN
102	6	6	90	kitchen	sun_ahdycvpopffkzzsu.tif	324978.602308	324978.852654	324979.598846	7.505944e-01	80	none	NaN	NaN
102	6	7	99	kitchen	sun_akcjzhbbjlbogpdi.tif	324980.370431	324980.620562	324981.366998	7.672743e-01	89	39	324982.684801	1
102	6	8	93	kitchen	sun_ahspylgoovwmwvgk.tif	324983.472908	324983.723222	324984.469452	7.005548e-01	83	none	NaN	NaN
102	6	9	62	kitchen	labelme_kxvouciolcpqplr.tif	324985.241022	324985.491171	324986.237632	6.671950e-01	52	none	NaN	NaN
102	6	10	69	kitchen	sun_abdenxonkemggwsq.tif	324987.009139	324987.259257	324988.005687	6.838749e-01	59	none	NaN	NaN
102	6	11	98	kitchen	sun_akchetnepxlcxhsu.tif	324988.777258	324989.027494	324989.773809	7.839542e-01	88	none	NaN	NaN
102	6	12	106	kitchen	sun_awcpdzzznmweyyhv.tif	324990.545374	324990.795422	324991.541930	8.006340e-01	96	none	NaN	NaN
102	6	13	109	kitchen	sun_aypmqwcualkenuoe.tif	324992.313404	324992.563702	324993.309906	7.005548e-01	99	none	NaN	NaN
102	6	14	100	kitchen	sun_amjjdeyrggfqgmom.tif	324994.081541	324994.331791	324995.078103	7.172347e-01	90	none	NaN	NaN
102	6	15	89	kitchen	sun_agzzivivdpnawacl.tif	324995.849660	324996.099962	324996.846224	8.339938e-01	79	none	NaN	NaN
102	6	16	103	kitchen	sun_aunzlwrbjumxhwdj.tif	324997.617766	324997.868001	324998.614328	7.005548e-01	93	none	NaN	NaN
102	6	17	78	kitchen	sun_adgqasybjyktddhj.tif	324999.385856	324999.636034	325000.382318	8.339938e-01	68	none	NaN	NaN
102	6	18	68	kitchen	sun_aaxxjlsuzvqlgylf.tif	325001.153977	325001.404271	325002.150461	8.339938e-01	58	none	NaN	NaN
102	6	19	71	kitchen	sun_abftihopvusyfakt.tif	325002.922069	325003.172288	325003.918708	7.005548e-01	61	none	NaN	NaN
102	6	20	105	kitchen	sun_avszsnwsbuqfgzbn.tif	325004.690160	325004.940310	325005.686760	6.505152e-01	95	37	325006.748757	0
102	6	21	73	kitchen	sun_abrcnpqqhmjwekyf.tif	325007.542515	325007.792574	325008.538951	7.505944e-01	63	none	NaN	NaN
102	6	22	67	kitchen	sun_aarfiyshqohlwkmo.tif	325009.310576	325009.560800	325010.307015	7.672743e-01	57	none	NaN	NaN
102	6	23	86	kitchen	sun_aggjlwcdjsjcaemh.tif	325011.078697	325011.328929	325012.075323	8.006340e-01	76	none	NaN	NaN
102	6	24	74	kitchen	sun_acfmftudsenhrfhy.tif	325012.846813	325013.097058	325013.843433	6.671950e-01	64	none	NaN	NaN
102	6	25	66	kitchen	sun_aapllqyqlykszopd.tif	325014.614896	325014.865228	325015.611376	7.172347e-01	56	none	NaN	NaN
102	6	26	95	kitchen	sun_aixorpehvfykdynp.tif	325016.383018	325016.633099	325017.379540	7.672743e-01	85	none	NaN	NaN
102	6	27	70	kitchen	sun_abdxkyyxwfskuaqb.tif	325018.151117	325018.401398	325019.147629	8.339938e-01	60	39	325020.364839	1
102	6	28	75	kitchen	sun_acgtpgfybqjmzeyw.tif	325021.153556	325021.403685	325022.150087	8.339938e-01	65	none	NaN	NaN
102	6	29	94	kitchen	sun_ahywdevtimnqcsln.tif	325022.921653	325023.172007	325023.918301	7.339145e-01	84	none	NaN	NaN
102	6	30	85	kitchen	sun_afuyedyxivkhecmu.tif	325024.689754	325024.939905	325025.686289	7.839542e-01	75	none	NaN	NaN
102	6	31	107	kitchen	sun_axyyrmzcupyhlivc.tif	325026.457887	325026.708147	325027.454373	8.173139e-01	97	none	NaN	NaN
102	6	32	91	kitchen	sun_ahljzhgcdpomplvg.tif	325028.225965	325028.476296	325029.222558	7.172347e-01	81	none	NaN	NaN
102	6	33	96	kitchen	sun_ajcbwwvdlsvjyzje.tif	325029.994100	325030.244198	325030.990555	7.839542e-01	86	39	325031.916711	1
102	6	34	82	kitchen	sun_aenotlpyftoioydp.tif	325032.712937	325032.963204	325033.709379	7.505944e-01	72	39	325035.252586	0
102	6	35	102	kitchen	sun_auaiucuqpdausiva.tif	325036.049015	325036.299216	325037.045561	8.006340e-01	92	37	325038.740828	1
102	6	36	72	kitchen	sun_abpwyqmlzafvklqo.tif	325039.535195	325039.784978	325040.531727	7.339145e-01	62	none	NaN	NaN
102	6	37	84	kitchen	sun_aexklacwqwezaorf.tif	325041.303271	325041.553430	325042.299741	7.672743e-01	74	39	325043.228726	1
102	6	38	101	kitchen	sun_aqeaevwwwjoqhzvl.tif	325044.022437	325044.271670	325045.018964	7.672743e-01	91	none	NaN	NaN
102	6	39	110	kitchen	sun_azmutvzbxypaceni.tif	325045.790273	325046.040519	325046.786841	6.505152e-01	100	none	NaN	NaN
102	6	40	83	kitchen	sun_aeqdocilnnpuvuhx.tif	325047.558344	325047.808503	325048.554900	8.006340e-01	73	none	NaN	NaN
102	6	41	77	kitchen	sun_acxkpeoqbwcxfvip.tif	325049.326474	325049.576820	325050.323084	8.173139e-01	67	none	NaN	NaN
102	6	42	63	kitchen	labelme_rykdqxenmhulbdn.tif	325051.094538	325051.344854	325052.091076	6.505152e-01	53	none	NaN	NaN
102	6	43	80	kitchen	sun_aegoxogugdkwpmpj.tif	325052.862681	325053.112954	325053.859203	7.172347e-01	70	none	NaN	NaN
102	6	44	79	kitchen	sun_admlmbcdswaszruo.tif	325054.630772	325054.880919	325055.627401	7.839542e-01	69	39	325056.484628	0
102	6	45	61	kitchen	labelme_brsyyvweiuaazfr.tif	325057.282900	325057.532728	325058.279461	7.005548e-01	51	none	NaN	NaN
102	6	46	97	kitchen	sun_ajkqhtgcbgpcwrwn.tif	325059.051033	325059.301233	325060.047551	7.172347e-01	87	none	NaN	NaN
102	6	47	88	kitchen	sun_agubuxuukhzyzpdp.tif	325060.819166	325061.069288	325061.815766	7.339145e-01	78	none	NaN	NaN
102	6	48	104	kitchen	sun_auticobqsbwgoppi.tif	325062.587253	325062.837477	325063.583774	7.839542e-01	94	none	NaN	NaN
102	6	49	76	kitchen	sun_acwjdupvyjsugpay.tif	325064.355363	325064.605448	325065.352004	7.672743e-01	66	none	NaN	NaN
102	6	50	92	kitchen	sun_ahpczsiumwwocjkv.tif	325066.123462	325066.373637	325067.120106	7.172347e-01	82	none	NaN	NaN
102	6	51	105	kitchen	sun_avszsnwsbuqfgzbn.tif	325067.891564	325068.141848	325068.888162	8.339938e-01	95	none	NaN	NaN
102	6	52	92	kitchen	sun_ahpczsiumwwocjkv.tif	325069.659667	325069.909819	325070.656212	8.339938e-01	82	none	NaN	NaN
102	6	53	83	kitchen	sun_aeqdocilnnpuvuhx.tif	325071.427754	325071.677856	325072.424400	7.339145e-01	73	none	NaN	NaN
102	6	54	94	kitchen	sun_ahywdevtimnqcsln.tif	325073.195863	325073.446102	325074.192524	8.173139e-01	84	none	NaN	NaN
102	6	55	101	kitchen	sun_aqeaevwwwjoqhzvl.tif	325074.963981	325075.214223	325075.960523	7.005548e-01	91	none	NaN	NaN
102	6	56	81	kitchen	sun_aehawpgmrlhlvcow.tif	325076.732065	325076.982266	325077.728621	6.838749e-01	71	none	NaN	NaN
102	6	57	87	kitchen	sun_agorklincwxrdtga.tif	325078.500193	325078.750482	325079.496634	8.006340e-01	77	none	NaN	NaN
102	6	58	89	kitchen	sun_agzzivivdpnawacl.tif	325080.268289	325080.518443	325081.264777	7.172347e-01	79	none	NaN	NaN
102	6	59	74	kitchen	sun_acfmftudsenhrfhy.tif	325082.036395	325082.286560	325083.032823	8.006340e-01	64	none	NaN	NaN
102	6	60	67	kitchen	sun_aarfiyshqohlwkmo.tif	325083.804472	325084.054731	325084.800910	6.838749e-01	57	none	NaN	NaN
102	6	61	63	kitchen	labelme_rykdqxenmhulbdn.tif	325085.572586	325085.822912	325086.569223	6.671950e-01	53	none	NaN	NaN
102	6	62	84	kitchen	sun_aexklacwqwezaorf.tif	325087.340698	325087.590979	325088.337287	6.505152e-01	74	none	NaN	NaN
102	6	63	103	kitchen	sun_aunzlwrbjumxhwdj.tif	325089.108813	325089.359001	325090.105246	6.838749e-01	93	37	325092.092741	1
102	6	64	91	kitchen	sun_ahljzhgcdpomplvg.tif	325092.895252	325093.145485	325093.891808	7.005548e-01	81	none	NaN	NaN
102	6	65	62	kitchen	labelme_kxvouciolcpqplr.tif	325094.663324	325094.913677	325095.659876	7.505944e-01	52	39	325100.220517	1
102	6	66	106	kitchen	sun_awcpdzzznmweyyhv.tif	325101.018492	325101.268817	325102.015050	6.671950e-01	96	none	NaN	NaN
102	6	67	68	kitchen	sun_aaxxjlsuzvqlgylf.tif	325102.786610	325103.036715	325103.783148	7.505944e-01	58	none	NaN	NaN
102	6	68	65	kitchen	sun_aamedkxepzlwuxes.tif	325104.554696	325104.805039	325105.551286	7.339145e-01	55	none	NaN	NaN
102	6	69	96	kitchen	sun_ajcbwwvdlsvjyzje.tif	325106.322798	325106.573029	325107.319430	7.005548e-01	86	none	NaN	NaN
102	6	70	110	kitchen	sun_azmutvzbxypaceni.tif	325108.090923	325108.341147	325109.087391	8.506737e-01	100	none	NaN	NaN
102	6	71	77	kitchen	sun_acxkpeoqbwcxfvip.tif	325109.859008	325110.109269	325110.855442	8.506737e-01	67	39	325113.508553	1
102	6	72	86	kitchen	sun_aggjlwcdjsjcaemh.tif	325114.312623	325114.562813	325115.309210	7.839542e-01	76	none	NaN	NaN
102	6	73	64	kitchen	sun_aadbddgrdsjugojn.tif	325116.080731	325116.330941	325117.077352	6.671950e-01	54	none	NaN	NaN
102	6	74	76	kitchen	sun_acwjdupvyjsugpay.tif	325117.848855	325118.098921	325118.845421	8.173139e-01	66	none	NaN	NaN
102	6	75	104	kitchen	sun_auticobqsbwgoppi.tif	325119.616947	325119.867230	325120.613416	8.506737e-01	94	none	NaN	NaN
102	6	76	95	kitchen	sun_aixorpehvfykdynp.tif	325121.385042	325121.635230	325122.381560	7.505944e-01	85	none	NaN	NaN
102	6	77	109	kitchen	sun_aypmqwcualkenuoe.tif	325123.153140	325123.403308	325124.149699	8.339938e-01	99	none	NaN	NaN
102	6	78	108	kitchen	sun_aymvwlarqodbwuoc.tif	325124.921233	325125.171473	325125.917871	6.838749e-01	98	37	325126.980573	1
102	6	79	100	kitchen	sun_amjjdeyrggfqgmom.tif	325127.773588	325128.023654	325128.770078	7.672743e-01	90	none	NaN	NaN
102	6	80	99	kitchen	sun_akcjzhbbjlbogpdi.tif	325129.541658	325129.791810	325130.538118	6.671950e-01	89	none	NaN	NaN
102	6	81	70	kitchen	sun_abdxkyyxwfskuaqb.tif	325131.309711	325131.559946	325132.306201	7.172347e-01	60	none	NaN	NaN
102	6	82	75	kitchen	sun_acgtpgfybqjmzeyw.tif	325133.077869	325133.328020	325134.074452	6.671950e-01	65	37	325135.004549	1
102	6	83	90	kitchen	sun_ahdycvpopffkzzsu.tif	325135.796765	325136.047086	325136.793296	6.838749e-01	80	none	NaN	NaN
102	6	84	97	kitchen	sun_ajkqhtgcbgpcwrwn.tif	325137.564866	325137.815144	325138.561432	6.838749e-01	87	none	NaN	NaN
102	6	85	88	kitchen	sun_agubuxuukhzyzpdp.tif	325139.332964	325139.583153	325140.329542	6.505152e-01	78	none	NaN	NaN
102	6	86	80	kitchen	sun_aegoxogugdkwpmpj.tif	325141.101080	325141.351267	325142.097565	8.006340e-01	70	none	NaN	NaN
102	6	87	82	kitchen	sun_aenotlpyftoioydp.tif	325142.869157	325143.119376	325143.865739	7.339145e-01	72	none	NaN	NaN
102	6	88	102	kitchen	sun_auaiucuqpdausiva.tif	325144.637280	325144.887555	325145.633832	8.006340e-01	92	39	325146.452381	1
102	6	89	66	kitchen	sun_aapllqyqlykszopd.tif	325147.256059	325147.506340	325148.252494	7.839542e-01	56	none	NaN	NaN
102	6	90	78	kitchen	sun_adgqasybjyktddhj.tif	325149.024193	325149.274509	325150.020623	8.173139e-01	68	none	NaN	NaN
102	6	91	61	kitchen	labelme_brsyyvweiuaazfr.tif	325150.792270	325151.042587	325151.788745	8.173139e-01	51	none	NaN	NaN
102	6	92	79	kitchen	sun_admlmbcdswaszruo.tif	325152.560407	325152.810451	325153.556966	8.339938e-01	69	37	325154.788537	1
102	6	93	73	kitchen	sun_abrcnpqqhmjwekyf.tif	325155.579534	325155.829783	325156.576075	7.672743e-01	63	none	NaN	NaN
102	6	94	69	kitchen	sun_abdenxonkemggwsq.tif	325157.347663	325157.597413	325158.344106	6.671950e-01	59	none	NaN	NaN
102	6	95	98	kitchen	sun_akchetnepxlcxhsu.tif	325159.115724	325159.365997	325160.112338	7.672743e-01	88	none	NaN	NaN
102	6	96	107	kitchen	sun_axyyrmzcupyhlivc.tif	325160.883842	325161.133935	325161.880420	7.839542e-01	97	none	NaN	NaN
102	6	97	71	kitchen	sun_abftihopvusyfakt.tif	325162.651935	325162.902008	325163.648414	7.505944e-01	61	none	NaN	NaN
102	6	98	85	kitchen	sun_afuyedyxivkhecmu.tif	325164.420021	325164.670153	325165.416529	7.339145e-01	75	none	NaN	NaN
102	6	99	93	kitchen	sun_ahspylgoovwmwvgk.tif	325166.188119	325166.438307	325167.184622	7.339145e-01	83	none	NaN	NaN
102	6	100	72	kitchen	sun_abpwyqmlzafvklqo.tif	325167.956238	325168.206417	325168.952901	7.505944e-01	62	none	NaN	NaN
102	7	1	30	bathroom	sun_ajlawzvmubibwbpy.tif	325178.464775	325178.715105	325179.411172	6.671950e-01	20	37	325180.396476	1
102	7	2	24	bathroom	sun_agrwbmhcpmfuwmsg.tif	325181.200328	325181.450141	325182.146901	7.505944e-01	14	none	NaN	NaN
102	7	3	18	bathroom	sun_acgyywnybuveqsro.tif	325182.918399	325183.168733	325183.864979	7.672743e-01	8	none	NaN	NaN
102	7	4	11	bathroom	labelme_sfxiulhjbhlyiyt.tif	325184.636430	325184.886626	325185.582966	7.505944e-01	1	none	NaN	NaN
102	7	5	36	bathroom	sun_ambriybtogmepttm.tif	325186.354506	325186.604800	325187.300897	7.839542e-01	26	none	NaN	NaN
102	7	6	59	bathroom	sun_axyrejkiiaqiurjk.tif	325188.072576	325188.322864	325189.019006	8.006340e-01	49	39	325190.004554	1
102	7	7	41	bathroom	sun_aoybiabnpadelefl.tif	325190.808144	325191.058272	325191.754551	7.005548e-01	31	none	NaN	NaN
102	7	8	27	bathroom	sun_ahcvzmoyaycdoftf.tif	325192.526208	325192.776480	325193.472602	7.339145e-01	17	none	NaN	NaN
102	7	9	33	bathroom	sun_aljolscmmzydegqp.tif	325194.244206	325194.494574	325195.190702	7.339145e-01	23	none	NaN	NaN
102	7	10	19	bathroom	sun_aclfzgynxzxlbepz.tif	325195.962353	325196.212416	325196.908941	6.671950e-01	9	none	NaN	NaN
102	7	11	50	bathroom	sun_aspsyogrekjtfozg.tif	325197.680398	325197.930483	325198.626973	7.505944e-01	40	none	NaN	NaN
102	7	12	25	bathroom	sun_agyqfjcfkdcydepw.tif	325199.398477	325199.648760	325200.345110	6.505152e-01	15	37	325201.604466	1
102	7	13	48	bathroom	sun_aqrpegblszgcoujh.tif	325202.400899	325202.651264	325203.347408	8.006340e-01	38	none	NaN	NaN
102	7	14	52	bathroom	sun_aunuadmjocsddsrl.tif	325204.118960	325204.369231	325205.065505	8.339938e-01	42	none	NaN	NaN
102	7	15	45	bathroom	sun_apkxzenqapsujocq.tif	325205.837030	325206.087180	325206.783435	8.006340e-01	35	none	NaN	NaN
102	7	16	54	bathroom	sun_auzqhkafidnkrwmo.tif	325207.555085	325207.805378	325208.501685	6.838749e-01	44	none	NaN	NaN
102	7	17	43	bathroom	sun_apjevzvycyhuqghb.tif	325209.273162	325209.523398	325210.219688	6.838749e-01	33	37	325211.284481	1
102	7	18	23	bathroom	sun_aghyqhbptboemmoq.tif	325212.075417	325212.325687	325213.022003	7.672743e-01	13	none	NaN	NaN
102	7	19	57	bathroom	sun_axldvoqbuvuggfmq.tif	325213.793505	325214.043820	325214.740011	7.505944e-01	47	none	NaN	NaN
102	7	20	13	bathroom	sun_aavhrsfjbserjtht.tif	325215.511551	325215.761798	325216.458028	8.173139e-01	3	none	NaN	NaN
102	7	21	28	bathroom	sun_ahijqszoswveeyji.tif	325217.229627	325217.479848	325218.176031	7.339145e-01	18	39	325219.356529	1
102	7	22	51	bathroom	sun_atstyziqcmkahyxk.tif	325220.148654	325220.398969	325221.095130	7.172347e-01	41	none	NaN	NaN
102	7	23	55	bathroom	sun_avhrdrntsqrjzccq.tif	325221.866727	325222.117055	325222.813316	7.172347e-01	45	none	NaN	NaN
102	7	24	40	bathroom	sun_aofnryafpsjimzsb.tif	325223.584801	325223.835106	325224.531260	7.005548e-01	30	none	NaN	NaN
102	7	25	44	bathroom	sun_apkruvsevgegsdwp.tif	325225.302844	325225.553046	325226.249262	8.006340e-01	34	none	NaN	NaN
102	7	26	42	bathroom	sun_apeeialkgkuxddgh.tif	325227.020919	325227.271069	325227.967310	8.173139e-01	32	none	NaN	NaN
102	7	27	20	bathroom	sun_afcoljnjfoxjtgja.tif	325228.738982	325228.989231	325229.685431	7.172347e-01	10	none	NaN	NaN
102	7	28	17	bathroom	sun_acegryoqftbzowsg.tif	325230.457068	325230.707322	325231.403489	8.339938e-01	7	none	NaN	NaN
102	7	29	37	bathroom	sun_amzlamotzwfkwjco.tif	325232.175102	325232.425358	325233.121660	6.838749e-01	27	none	NaN	NaN
102	7	30	16	bathroom	sun_acduarbnmmoglmiv.tif	325233.893160	325234.143458	325234.839561	6.838749e-01	6	none	NaN	NaN
102	7	31	34	bathroom	sun_alkosphxlxwjwgjd.tif	325235.611232	325235.861443	325236.557628	8.339938e-01	24	none	NaN	NaN
102	7	32	49	bathroom	sun_asfwthctfqerjvxr.tif	325237.329326	325237.579452	325238.275739	7.672743e-01	39	none	NaN	NaN
102	7	33	31	bathroom	sun_akiytfaagpdsphgz.tif	325239.047345	325239.297633	325239.993899	7.839542e-01	21	none	NaN	NaN
102	7	34	53	bathroom	sun_ausgutylgojavyoq.tif	325240.765429	325241.015825	325241.711920	7.005548e-01	43	39	325246.460552	1
102	7	35	39	bathroom	sun_anryaplzeujmzfkd.tif	325247.254019	325247.504192	325248.200606	8.339938e-01	29	none	NaN	NaN
102	7	36	21	bathroom	sun_aggnnqpdorgxpvce.tif	325248.972063	325249.222218	325249.918575	7.839542e-01	11	39	325250.924498	1
102	7	37	56	bathroom	sun_awnqiikzaispgmwo.tif	325251.724336	325251.974635	325252.670754	7.339145e-01	46	none	NaN	NaN
102	7	38	14	bathroom	sun_abapwbhyhkfixyex.tif	325253.442407	325253.692683	325254.388952	8.173139e-01	4	none	NaN	NaN
102	7	39	60	bathroom	sun_azqyogdvyhahyram.tif	325255.160446	325255.410622	325256.106891	7.672743e-01	50	none	NaN	NaN
102	7	40	38	bathroom	sun_anhioqovhscjqqwb.tif	325256.878506	325257.128609	325257.825013	8.173139e-01	28	none	NaN	NaN
102	7	41	47	bathroom	sun_apynckhmoftszqoq.tif	325258.596620	325258.846764	325259.543187	6.505152e-01	37	none	NaN	NaN
102	7	42	12	bathroom	sun_aapitsgbtktqubfy.tif	325260.314638	325260.564881	325261.261225	8.006340e-01	2	none	NaN	NaN
102	7	43	22	bathroom	sun_agguqiubmwhqqunb.tif	325262.032704	325262.283007	325262.979280	7.505944e-01	12	39	325264.396526	0
102	7	44	46	bathroom	sun_apmqjbnwghzuhhzh.tif	325265.185282	325265.435541	325266.131944	8.339938e-01	36	none	NaN	NaN
102	7	45	58	bathroom	sun_axxbkopsgyouuebh.tif	325266.903333	325267.153719	325267.849747	8.173139e-01	48	none	NaN	NaN
102	7	46	35	bathroom	sun_alotolagknyrgtsk.tif	325268.621487	325268.871546	325269.568032	8.506737e-01	25	none	NaN	NaN
102	7	47	26	bathroom	sun_ahaulkltgpkeeemi.tif	325270.339467	325270.589600	325271.285961	8.006340e-01	16	none	NaN	NaN
102	7	48	29	bathroom	sun_ahqjwnzgolcaoidx.tif	325272.057541	325272.307700	325273.004080	6.671950e-01	19	none	NaN	NaN
102	7	49	32	bathroom	sun_aleqenyvunhactkl.tif	325273.775584	325274.025833	325274.721995	7.505944e-01	22	none	NaN	NaN
102	7	50	15	bathroom	sun_abjtwfukuwddzted.tif	325275.493646	325275.743852	325276.440070	6.505152e-01	5	none	NaN	NaN
102	7	51	16	bathroom	sun_acduarbnmmoglmiv.tif	325277.211706	325277.461877	325278.158104	7.172347e-01	6	none	NaN	NaN
102	7	52	53	bathroom	sun_ausgutylgojavyoq.tif	325278.929775	325279.180113	325279.876164	8.339938e-01	43	none	NaN	NaN
102	7	53	23	bathroom	sun_aghyqhbptboemmoq.tif	325280.647837	325280.897988	325281.594298	7.839542e-01	13	none	NaN	NaN
102	7	54	17	bathroom	sun_acegryoqftbzowsg.tif	325282.365917	325282.616179	325283.312445	6.671950e-01	7	none	NaN	NaN
102	7	55	32	bathroom	sun_aleqenyvunhactkl.tif	325284.084278	325284.333821	325285.030793	8.339938e-01	22	37	325286.364559	1
102	7	56	37	bathroom	sun_amzlamotzwfkwjco.tif	325287.153124	325287.403478	325288.099590	8.173139e-01	27	none	NaN	NaN
102	7	57	59	bathroom	sun_axyrejkiiaqiurjk.tif	325288.871183	325289.121366	325289.817750	7.505944e-01	49	39	325291.076435	1
102	7	58	41	bathroom	sun_aoybiabnpadelefl.tif	325291.873635	325292.123957	325292.820086	7.005548e-01	31	none	NaN	NaN
102	7	59	26	bathroom	sun_ahaulkltgpkeeemi.tif	325293.591719	325293.842058	325294.538285	8.173139e-01	16	none	NaN	NaN
102	7	60	55	bathroom	sun_avhrdrntsqrjzccq.tif	325295.309774	325295.560084	325296.256355	6.671950e-01	45	none	NaN	NaN
102	7	61	40	bathroom	sun_aofnryafpsjimzsb.tif	325297.027820	325297.278076	325297.974433	7.339145e-01	30	none	NaN	NaN
102	7	62	33	bathroom	sun_aljolscmmzydegqp.tif	325298.745920	325298.995981	325299.692404	7.005548e-01	23	none	NaN	NaN
102	7	63	24	bathroom	sun_agrwbmhcpmfuwmsg.tif	325300.463985	325300.714194	325301.410502	7.672743e-01	14	none	NaN	NaN
102	7	64	39	bathroom	sun_anryaplzeujmzfkd.tif	325302.182017	325302.432321	325303.128592	8.506737e-01	29	none	NaN	NaN
102	7	65	38	bathroom	sun_anhioqovhscjqqwb.tif	325303.900068	325304.150364	325304.846624	6.505152e-01	28	none	NaN	NaN
102	7	66	15	bathroom	sun_abjtwfukuwddzted.tif	325305.618142	325305.868241	325306.564621	6.838749e-01	5	none	NaN	NaN
102	7	67	42	bathroom	sun_apeeialkgkuxddgh.tif	325307.336212	325307.586453	325308.282793	7.839542e-01	32	none	NaN	NaN
102	7	68	11	bathroom	labelme_sfxiulhjbhlyiyt.tif	325309.054251	325309.304441	325310.000672	8.506737e-01	1	none	NaN	NaN
102	7	69	12	bathroom	sun_aapitsgbtktqubfy.tif	325310.772322	325311.022380	325311.719687	6.838749e-01	2	none	NaN	NaN
102	7	70	43	bathroom	sun_apjevzvycyhuqghb.tif	325312.507060	325312.757361	325313.453465	7.339145e-01	33	none	NaN	NaN
102	7	71	47	bathroom	sun_apynckhmoftszqoq.tif	325314.225151	325314.475323	325315.171685	8.006340e-01	37	37	325316.500479	1
102	7	72	34	bathroom	sun_alkosphxlxwjwgjd.tif	325317.294311	325317.544462	325318.240822	7.505944e-01	24	none	NaN	NaN
102	7	73	30	bathroom	sun_ajlawzvmubibwbpy.tif	325319.012370	325319.262577	325319.958867	7.172347e-01	20	none	NaN	NaN
102	7	74	56	bathroom	sun_awnqiikzaispgmwo.tif	325320.730441	325320.980689	325321.676908	6.671950e-01	46	none	NaN	NaN
102	7	75	36	bathroom	sun_ambriybtogmepttm.tif	325322.448486	325322.698649	325323.395077	8.173139e-01	26	none	NaN	NaN
102	7	76	46	bathroom	sun_apmqjbnwghzuhhzh.tif	325324.166584	325324.416912	325325.113068	6.671950e-01	36	none	NaN	NaN
102	7	77	14	bathroom	sun_abapwbhyhkfixyex.tif	325325.884606	325326.134964	325326.831184	7.839542e-01	4	none	NaN	NaN
102	7	78	19	bathroom	sun_aclfzgynxzxlbepz.tif	325327.602691	325327.852782	325328.549288	7.005548e-01	9	none	NaN	NaN
102	7	79	25	bathroom	sun_agyqfjcfkdcydepw.tif	325329.320750	325329.570842	325330.267354	7.005548e-01	15	none	NaN	NaN
102	7	80	13	bathroom	sun_aavhrsfjbserjtht.tif	325331.038799	325331.289051	325331.985293	7.339145e-01	3	none	NaN	NaN
102	7	81	60	bathroom	sun_azqyogdvyhahyram.tif	325332.756863	325333.006968	325333.703389	7.339145e-01	50	none	NaN	NaN
102	7	82	50	bathroom	sun_aspsyogrekjtfozg.tif	325334.474931	325334.725162	325335.421409	6.505152e-01	40	39	325336.692218	1
102	7	83	22	bathroom	sun_agguqiubmwhqqunb.tif	325337.494056	325337.744267	325338.440567	6.671950e-01	12	none	NaN	NaN
102	7	84	20	bathroom	sun_afcoljnjfoxjtgja.tif	325339.212130	325339.462258	325340.158583	8.339938e-01	10	none	NaN	NaN
102	7	85	18	bathroom	sun_acgyywnybuveqsro.tif	325340.930180	325341.180385	325341.876684	6.838749e-01	8	none	NaN	NaN
102	7	86	58	bathroom	sun_axxbkopsgyouuebh.tif	325342.648253	325342.898323	325343.594838	7.672743e-01	48	none	NaN	NaN
102	7	87	35	bathroom	sun_alotolagknyrgtsk.tif	325344.366297	325344.616498	325345.312713	7.172347e-01	25	none	NaN	NaN
102	7	88	44	bathroom	sun_apkruvsevgegsdwp.tif	325346.084366	325346.334679	325347.031446	7.005548e-01	34	none	NaN	NaN
102	7	89	48	bathroom	sun_aqrpegblszgcoujh.tif	325347.802440	325348.052539	325348.748943	7.839542e-01	38	none	NaN	NaN
102	7	90	45	bathroom	sun_apkxzenqapsujocq.tif	325349.520500	325349.770735	325350.467002	7.839542e-01	35	none	NaN	NaN
102	7	91	57	bathroom	sun_axldvoqbuvuggfmq.tif	325351.238575	325351.488861	325352.185128	7.172347e-01	47	39	325358.468327	1
102	7	92	51	bathroom	sun_atstyziqcmkahyxk.tif	325359.261746	325359.512043	325360.208342	7.172347e-01	41	none	NaN	NaN
102	7	93	31	bathroom	sun_akiytfaagpdsphgz.tif	325360.979817	325361.229895	325361.926290	8.006340e-01	21	none	NaN	NaN
102	7	94	29	bathroom	sun_ahqjwnzgolcaoidx.tif	325362.697880	325362.947982	325363.644350	8.339938e-01	19	none	NaN	NaN
102	7	95	54	bathroom	sun_auzqhkafidnkrwmo.tif	325364.415951	325364.666274	325365.362484	8.506737e-01	44	37	325366.508391	1
102	7	96	49	bathroom	sun_asfwthctfqerjvxr.tif	325367.301633	325367.551908	325368.248143	7.672743e-01	39	none	NaN	NaN
102	7	97	52	bathroom	sun_aunuadmjocsddsrl.tif	325369.019661	325369.270002	325369.966221	7.672743e-01	42	none	NaN	NaN
102	7	98	28	bathroom	sun_ahijqszoswveeyji.tif	325370.737757	325370.987933	325371.684192	6.838749e-01	18	none	NaN	NaN
102	7	99	21	bathroom	sun_aggnnqpdorgxpvce.tif	325372.455815	325372.706002	325373.402320	7.005548e-01	11	37	325374.516442	1
102	7	100	27	bathroom	sun_ahcvzmoyaycdoftf.tif	325375.308114	325375.558460	325376.254692	7.672743e-01	17	none	NaN	NaN
102	8	1	66	kitchen	sun_aapllqyqlykszopd.tif	325383.481395	325383.731651	325384.427893	6.838749e-01	56	none	NaN	NaN
102	8	2	91	kitchen	sun_ahljzhgcdpomplvg.tif	325385.199509	325385.449693	325386.146096	7.505944e-01	81	37	325387.244437	1
102	8	3	104	kitchen	sun_auticobqsbwgoppi.tif	325388.035173	325388.285293	325388.981750	8.506737e-01	94	none	NaN	NaN
102	8	4	109	kitchen	sun_aypmqwcualkenuoe.tif	325389.753216	325390.003527	325390.699765	7.839542e-01	99	none	NaN	NaN
102	8	5	81	kitchen	sun_aehawpgmrlhlvcow.tif	325391.471273	325391.721450	325392.417864	7.172347e-01	71	37	325393.292408	1
102	8	6	101	kitchen	sun_aqeaevwwwjoqhzvl.tif	325394.090060	325394.340172	325395.036545	7.172347e-01	91	none	NaN	NaN
102	8	7	85	kitchen	sun_afuyedyxivkhecmu.tif	325395.808122	325396.058408	325396.754529	8.173139e-01	75	none	NaN	NaN
102	8	8	83	kitchen	sun_aeqdocilnnpuvuhx.tif	325397.526199	325397.776497	325398.472635	7.005548e-01	73	none	NaN	NaN
102	8	9	80	kitchen	sun_aegoxogugdkwpmpj.tif	325399.244269	325399.494525	325400.190741	8.006340e-01	70	none	NaN	NaN
102	8	10	86	kitchen	sun_aggjlwcdjsjcaemh.tif	325400.962322	325401.212544	325401.908893	6.671950e-01	76	39	325402.820165	1
102	8	11	65	kitchen	sun_aamedkxepzlwuxes.tif	325403.614470	325403.864601	325404.561051	7.005548e-01	55	none	NaN	NaN
102	8	12	98	kitchen	sun_akchetnepxlcxhsu.tif	325405.332541	325405.582849	325406.279064	7.005548e-01	88	none	NaN	NaN
102	8	13	77	kitchen	sun_acxkpeoqbwcxfvip.tif	325407.050617	325407.300836	325407.997122	8.006340e-01	67	none	NaN	NaN
102	8	14	96	kitchen	sun_ajcbwwvdlsvjyzje.tif	325408.768660	325409.018992	325409.715061	8.339938e-01	86	none	NaN	NaN
102	8	15	84	kitchen	sun_aexklacwqwezaorf.tif	325410.486736	325410.737041	325411.433127	7.172347e-01	74	39	325413.092303	1
102	8	16	79	kitchen	sun_admlmbcdswaszruo.tif	325413.889496	325414.139575	325414.836075	7.505944e-01	69	none	NaN	NaN
102	8	17	89	kitchen	sun_agzzivivdpnawacl.tif	325415.607579	325415.857637	325416.554165	8.506737e-01	79	37	325417.860356	1
102	8	18	92	kitchen	sun_ahpczsiumwwocjkv.tif	325418.660043	325418.910224	325419.606578	8.339938e-01	82	none	NaN	NaN
102	8	19	93	kitchen	sun_ahspylgoovwmwvgk.tif	325420.378108	325420.628394	325421.324696	7.839542e-01	83	39	325422.436323	1
102	8	20	87	kitchen	sun_agorklincwxrdtga.tif	325423.230433	325423.480611	325424.176891	7.839542e-01	77	37	325425.204355	1
102	8	21	68	kitchen	sun_aaxxjlsuzvqlgylf.tif	325425.999367	325426.249435	325426.945762	6.838749e-01	58	none	NaN	NaN
102	8	22	76	kitchen	sun_acwjdupvyjsugpay.tif	325427.717371	325427.967608	325428.663875	6.505152e-01	66	none	NaN	NaN
102	8	23	67	kitchen	sun_aarfiyshqohlwkmo.tif	325429.435463	325429.685671	325430.381872	6.671950e-01	57	none	NaN	NaN
102	8	24	97	kitchen	sun_ajkqhtgcbgpcwrwn.tif	325431.153525	325431.403899	325432.099950	7.505944e-01	87	none	NaN	NaN
102	8	25	110	kitchen	sun_azmutvzbxypaceni.tif	325432.871604	325433.121853	325433.818074	7.172347e-01	100	none	NaN	NaN
102	8	26	105	kitchen	sun_avszsnwsbuqfgzbn.tif	325434.589689	325434.840031	325435.536217	7.839542e-01	95	none	NaN	NaN
102	8	27	70	kitchen	sun_abdxkyyxwfskuaqb.tif	325436.307719	325436.557924	325437.254143	8.506737e-01	60	none	NaN	NaN
102	8	28	69	kitchen	sun_abdenxonkemggwsq.tif	325438.025812	325438.275953	325438.972417	7.505944e-01	59	none	NaN	NaN
102	8	29	64	kitchen	sun_aadbddgrdsjugojn.tif	325439.743861	325439.994141	325440.690295	8.506737e-01	54	none	NaN	NaN
102	8	30	72	kitchen	sun_abpwyqmlzafvklqo.tif	325441.461922	325441.712122	325442.408333	7.672743e-01	62	none	NaN	NaN
102	8	31	71	kitchen	sun_abftihopvusyfakt.tif	325443.179977	325443.430089	325444.126440	7.505944e-01	61	none	NaN	NaN
102	8	32	108	kitchen	sun_aymvwlarqodbwuoc.tif	325444.898022	325445.148219	325445.844437	8.339938e-01	98	none	NaN	NaN
102	8	33	102	kitchen	sun_auaiucuqpdausiva.tif	325446.616123	325446.866307	325447.562730	7.339145e-01	92	none	NaN	NaN
102	8	34	75	kitchen	sun_acgtpgfybqjmzeyw.tif	325448.334160	325448.584498	325449.280649	7.839542e-01	65	none	NaN	NaN
102	8	35	100	kitchen	sun_amjjdeyrggfqgmom.tif	325450.052239	325450.302498	325450.998822	8.173139e-01	90	none	NaN	NaN
102	8	36	74	kitchen	sun_acfmftudsenhrfhy.tif	325451.770309	325452.020532	325452.716851	7.672743e-01	64	none	NaN	NaN
102	8	37	73	kitchen	sun_abrcnpqqhmjwekyf.tif	325453.488385	325453.738651	325454.434897	8.006340e-01	63	none	NaN	NaN
102	8	38	94	kitchen	sun_ahywdevtimnqcsln.tif	325455.206423	325455.456594	325456.152814	8.173139e-01	84	none	NaN	NaN
102	8	39	106	kitchen	sun_awcpdzzznmweyyhv.tif	325456.924512	325457.174811	325457.871101	6.838749e-01	96	none	NaN	NaN
102	8	40	103	kitchen	sun_aunzlwrbjumxhwdj.tif	325458.642563	325458.893706	325459.589146	7.172347e-01	93	none	NaN	NaN
102	8	41	99	kitchen	sun_akcjzhbbjlbogpdi.tif	325460.360632	325460.610883	325461.307172	7.505944e-01	89	none	NaN	NaN
102	8	42	63	kitchen	labelme_rykdqxenmhulbdn.tif	325462.078660	325462.328966	325463.025066	8.339938e-01	53	none	NaN	NaN
102	8	43	61	kitchen	labelme_brsyyvweiuaazfr.tif	325463.796741	325464.046988	325464.743288	7.505944e-01	51	none	NaN	NaN
102	8	44	88	kitchen	sun_agubuxuukhzyzpdp.tif	325465.514822	325465.765114	325466.461344	7.672743e-01	78	none	NaN	NaN
102	8	45	95	kitchen	sun_aixorpehvfykdynp.tif	325467.232864	325467.483107	325468.179466	7.172347e-01	85	none	NaN	NaN
102	8	46	62	kitchen	labelme_kxvouciolcpqplr.tif	325468.950927	325469.201113	325469.897371	7.839542e-01	52	none	NaN	NaN
102	8	47	78	kitchen	sun_adgqasybjyktddhj.tif	325470.669026	325470.919059	325471.615508	8.339938e-01	68	none	NaN	NaN
102	8	48	82	kitchen	sun_aenotlpyftoioydp.tif	325472.387036	325472.637197	325473.333521	6.671950e-01	72	37	325474.668453	1
102	8	49	90	kitchen	sun_ahdycvpopffkzzsu.tif	325475.472905	325475.723136	325476.419336	7.339145e-01	80	none	NaN	NaN
102	8	50	107	kitchen	sun_axyyrmzcupyhlivc.tif	325477.190962	325477.441294	325478.137526	6.838749e-01	97	none	NaN	NaN
102	8	51	109	kitchen	sun_aypmqwcualkenuoe.tif	325478.909046	325479.159227	325479.855608	7.672743e-01	99	none	NaN	NaN
102	8	52	75	kitchen	sun_acgtpgfybqjmzeyw.tif	325480.627092	325480.877323	325481.573560	7.172347e-01	65	none	NaN	NaN
102	8	53	76	kitchen	sun_acwjdupvyjsugpay.tif	325482.345168	325482.595340	325483.291735	6.671950e-01	66	none	NaN	NaN
102	8	54	66	kitchen	sun_aapllqyqlykszopd.tif	325484.063201	325484.313548	325485.009655	6.505152e-01	56	none	NaN	NaN
102	8	55	107	kitchen	sun_axyyrmzcupyhlivc.tif	325485.781307	325486.031633	325486.727709	7.005548e-01	97	37	325487.812313	1
102	8	56	64	kitchen	sun_aadbddgrdsjugojn.tif	325488.600232	325488.850502	325489.546803	8.339938e-01	54	37	325491.500348	1
102	8	57	101	kitchen	sun_aqeaevwwwjoqhzvl.tif	325492.303262	325492.553394	325493.249744	6.838749e-01	91	none	NaN	NaN
102	8	58	79	kitchen	sun_admlmbcdswaszruo.tif	325494.021303	325494.271497	325494.967793	7.339145e-01	69	none	NaN	NaN
102	8	59	61	kitchen	labelme_brsyyvweiuaazfr.tif	325495.739364	325495.989685	325496.685891	7.672743e-01	51	none	NaN	NaN
102	8	60	92	kitchen	sun_ahpczsiumwwocjkv.tif	325497.457431	325497.707630	325498.403956	7.672743e-01	82	none	NaN	NaN
102	8	61	63	kitchen	labelme_rykdqxenmhulbdn.tif	325499.175487	325499.425829	325500.122052	7.339145e-01	53	none	NaN	NaN
102	8	62	93	kitchen	sun_ahspylgoovwmwvgk.tif	325500.893551	325501.143734	325501.840151	7.339145e-01	83	none	NaN	NaN
102	8	63	106	kitchen	sun_awcpdzzznmweyyhv.tif	325502.611639	325502.861823	325503.558229	7.005548e-01	96	none	NaN	NaN
102	8	64	83	kitchen	sun_aeqdocilnnpuvuhx.tif	325504.329676	325504.579980	325505.276272	6.838749e-01	73	none	NaN	NaN
102	8	65	70	kitchen	sun_abdxkyyxwfskuaqb.tif	325506.047772	325506.314593	325506.994176	7.005548e-01	60	none	NaN	NaN
102	8	66	84	kitchen	sun_aexklacwqwezaorf.tif	325507.765813	325508.016172	325508.712327	7.672743e-01	74	none	NaN	NaN
102	8	67	78	kitchen	sun_adgqasybjyktddhj.tif	325509.483906	325509.734036	325510.430327	8.006340e-01	68	none	NaN	NaN
102	8	68	77	kitchen	sun_acxkpeoqbwcxfvip.tif	325511.201947	325511.452237	325512.148438	7.839542e-01	67	none	NaN	NaN
102	8	69	74	kitchen	sun_acfmftudsenhrfhy.tif	325512.920024	325513.170211	325513.866472	8.173139e-01	64	none	NaN	NaN
102	8	70	94	kitchen	sun_ahywdevtimnqcsln.tif	325514.638100	325514.888363	325515.584650	7.005548e-01	84	39	325521.212400	1
102	8	71	95	kitchen	sun_aixorpehvfykdynp.tif	325522.010738	325522.260812	325522.957308	6.671950e-01	85	39	325524.484071	1
102	8	72	73	kitchen	sun_abrcnpqqhmjwekyf.tif	325525.280046	325525.530195	325526.226455	8.006340e-01	63	37	325527.540248	1
102	8	73	88	kitchen	sun_agubuxuukhzyzpdp.tif	325528.332544	325528.582798	325529.278935	8.173139e-01	78	none	NaN	NaN
102	8	74	98	kitchen	sun_akchetnepxlcxhsu.tif	325530.050539	325530.300852	325530.997128	8.006340e-01	88	none	NaN	NaN
102	8	75	80	kitchen	sun_aegoxogugdkwpmpj.tif	325531.768683	325532.018877	325532.715121	6.671950e-01	70	39	325533.764427	1
102	8	76	65	kitchen	sun_aamedkxepzlwuxes.tif	325534.554243	325534.804445	325535.500637	7.672743e-01	55	none	NaN	NaN
102	8	77	103	kitchen	sun_aunzlwrbjumxhwdj.tif	325536.272344	325536.522129	325537.218761	7.339145e-01	93	none	NaN	NaN
102	8	78	86	kitchen	sun_aggjlwcdjsjcaemh.tif	325537.990393	325538.240633	325538.936870	8.006340e-01	76	none	NaN	NaN
102	8	79	71	kitchen	sun_abftihopvusyfakt.tif	325539.708457	325539.958809	325540.654957	7.505944e-01	61	none	NaN	NaN
102	8	80	81	kitchen	sun_aehawpgmrlhlvcow.tif	325541.426528	325541.676845	325542.373132	8.339938e-01	71	none	NaN	NaN
102	8	81	96	kitchen	sun_ajcbwwvdlsvjyzje.tif	325543.144594	325543.394758	325544.091185	6.671950e-01	86	none	NaN	NaN
102	8	82	102	kitchen	sun_auaiucuqpdausiva.tif	325544.862669	325545.112823	325545.809148	7.005548e-01	92	none	NaN	NaN
102	8	83	62	kitchen	labelme_kxvouciolcpqplr.tif	325546.580719	325546.830905	325547.527152	7.339145e-01	52	none	NaN	NaN
102	8	84	108	kitchen	sun_aymvwlarqodbwuoc.tif	325548.298750	325548.548569	325549.245251	6.505152e-01	98	none	NaN	NaN
102	8	85	72	kitchen	sun_abpwyqmlzafvklqo.tif	325550.016846	325550.267174	325550.963444	8.173139e-01	62	none	NaN	NaN
102	8	86	87	kitchen	sun_agorklincwxrdtga.tif	325551.734896	325551.985129	325552.681417	7.339145e-01	77	none	NaN	NaN
102	8	87	90	kitchen	sun_ahdycvpopffkzzsu.tif	325553.452967	325553.703221	325554.399391	8.006340e-01	80	none	NaN	NaN
102	8	88	82	kitchen	sun_aenotlpyftoioydp.tif	325555.171008	325555.421159	325556.117508	6.838749e-01	72	none	NaN	NaN
102	8	89	100	kitchen	sun_amjjdeyrggfqgmom.tif	325556.889092	325557.139232	325557.835647	7.172347e-01	90	39	325558.708283	1
102	8	90	67	kitchen	sun_aarfiyshqohlwkmo.tif	325559.507871	325559.758117	325560.454311	7.005548e-01	57	none	NaN	NaN
102	8	91	104	kitchen	sun_auticobqsbwgoppi.tif	325561.225958	325561.476186	325562.172417	8.173139e-01	94	none	NaN	NaN
102	8	92	110	kitchen	sun_azmutvzbxypaceni.tif	325562.944011	325563.194131	325563.890592	7.672743e-01	100	none	NaN	NaN
102	8	93	105	kitchen	sun_avszsnwsbuqfgzbn.tif	325564.662018	325564.912231	325565.608616	8.173139e-01	95	none	NaN	NaN
102	8	94	97	kitchen	sun_ajkqhtgcbgpcwrwn.tif	325566.380137	325566.630436	325567.326701	8.339938e-01	87	none	NaN	NaN
102	8	95	85	kitchen	sun_afuyedyxivkhecmu.tif	325568.098185	325568.348296	325569.044802	8.339938e-01	75	none	NaN	NaN
102	8	96	89	kitchen	sun_agzzivivdpnawacl.tif	325569.816277	325570.066478	325570.762861	7.839542e-01	79	none	NaN	NaN
102	8	97	91	kitchen	sun_ahljzhgcdpomplvg.tif	325571.534342	325571.784425	325572.480868	6.671950e-01	81	none	NaN	NaN
102	8	98	99	kitchen	sun_akcjzhbbjlbogpdi.tif	325573.252394	325573.502535	325574.198956	6.505152e-01	89	none	NaN	NaN
102	8	99	68	kitchen	sun_aaxxjlsuzvqlgylf.tif	325574.970469	325575.220639	325575.916963	6.838749e-01	58	none	NaN	NaN
102	8	100	69	kitchen	sun_abdenxonkemggwsq.tif	325576.688518	325576.938705	325577.635001	6.505152e-01	59	none	NaN	NaN
102	9	1	11	bathroom	labelme_sfxiulhjbhlyiyt.tif	325587.730806	325587.980990	325588.644041	7.839542e-01	1	none	NaN	NaN
102	9	2	24	bathroom	sun_agrwbmhcpmfuwmsg.tif	325589.415516	325589.665696	325590.328683	8.506737e-01	14	none	NaN	NaN
102	9	3	60	bathroom	sun_azqyogdvyhahyram.tif	325591.100218	325591.350427	325592.013349	7.005548e-01	50	none	NaN	NaN
102	9	4	19	bathroom	sun_aclfzgynxzxlbepz.tif	325592.784920	325593.035287	325593.698171	7.839542e-01	9	none	NaN	NaN
102	9	5	14	bathroom	sun_abapwbhyhkfixyex.tif	325594.469623	325594.719738	325595.382678	8.173139e-01	4	none	NaN	NaN
102	9	6	15	bathroom	sun_abjtwfukuwddzted.tif	325596.154341	325596.404556	325597.067437	6.838749e-01	5	39	325597.964356	1
102	9	7	21	bathroom	sun_aggnnqpdorgxpvce.tif	325598.756455	325599.006562	325599.669682	7.505944e-01	11	none	NaN	NaN
102	9	8	38	bathroom	sun_anhioqovhscjqqwb.tif	325600.441137	325600.691319	325601.354303	6.505152e-01	28	none	NaN	NaN
102	9	9	44	bathroom	sun_apkruvsevgegsdwp.tif	325602.125848	325602.376184	325603.039032	6.671950e-01	34	none	NaN	NaN
102	9	10	56	bathroom	sun_awnqiikzaispgmwo.tif	325603.810582	325604.060720	325604.723742	6.505152e-01	46	none	NaN	NaN
102	9	11	16	bathroom	sun_acduarbnmmoglmiv.tif	325605.495250	325605.745406	325606.408304	8.339938e-01	6	none	NaN	NaN
102	9	12	45	bathroom	sun_apkxzenqapsujocq.tif	325607.179970	325607.430015	325608.093132	8.006340e-01	35	none	NaN	NaN
102	9	13	18	bathroom	sun_acgyywnybuveqsro.tif	325608.864677	325609.114837	325609.777854	8.339938e-01	8	none	NaN	NaN
102	9	14	20	bathroom	sun_afcoljnjfoxjtgja.tif	325610.549378	325610.799530	325611.462642	7.839542e-01	10	37	325612.476235	1
102	9	15	49	bathroom	sun_asfwthctfqerjvxr.tif	325613.268243	325613.518372	325614.181310	8.173139e-01	39	none	NaN	NaN
102	9	16	31	bathroom	sun_akiytfaagpdsphgz.tif	325614.952941	325615.203241	325615.866191	7.672743e-01	21	none	NaN	NaN
102	9	17	17	bathroom	sun_acegryoqftbzowsg.tif	325616.637660	325616.887873	325617.550815	7.505944e-01	7	none	NaN	NaN
102	9	18	54	bathroom	sun_auzqhkafidnkrwmo.tif	325618.322371	325618.572649	325619.235451	8.506737e-01	44	none	NaN	NaN
102	9	19	50	bathroom	sun_aspsyogrekjtfozg.tif	325620.007058	325620.257316	325620.920223	8.173139e-01	40	none	NaN	NaN
102	9	20	34	bathroom	sun_alkosphxlxwjwgjd.tif	325621.691776	325621.942121	325622.605023	7.339145e-01	24	37	325623.484134	1
102	9	21	53	bathroom	sun_ausgutylgojavyoq.tif	325624.277188	325624.527455	325625.190409	6.838749e-01	43	none	NaN	NaN
102	9	22	13	bathroom	sun_aavhrsfjbserjtht.tif	325625.961893	325626.212188	325626.874939	6.671950e-01	3	none	NaN	NaN
102	9	23	52	bathroom	sun_aunuadmjocsddsrl.tif	325627.646608	325627.896714	325628.559761	6.505152e-01	42	none	NaN	NaN
102	9	24	12	bathroom	sun_aapitsgbtktqubfy.tif	325629.331296	325629.581545	325630.244404	7.505944e-01	2	none	NaN	NaN
102	9	25	39	bathroom	sun_anryaplzeujmzfkd.tif	325631.015991	325631.266188	325631.929110	7.339145e-01	29	none	NaN	NaN
102	9	26	29	bathroom	sun_ahqjwnzgolcaoidx.tif	325632.700723	325632.950781	325633.613903	7.172347e-01	19	none	NaN	NaN
102	9	27	26	bathroom	sun_ahaulkltgpkeeemi.tif	325634.385446	325634.635630	325635.298665	6.671950e-01	16	39	325638.316136	0
102	9	28	51	bathroom	sun_atstyziqcmkahyxk.tif	325639.105911	325639.356056	325640.019004	7.172347e-01	41	none	NaN	NaN
102	9	29	41	bathroom	sun_aoybiabnpadelefl.tif	325640.790614	325641.040923	325641.703732	7.839542e-01	31	none	NaN	NaN
102	9	30	28	bathroom	sun_ahijqszoswveeyji.tif	325642.475334	325642.725441	325643.388479	7.339145e-01	18	none	NaN	NaN
102	9	31	57	bathroom	sun_axldvoqbuvuggfmq.tif	325644.160112	325644.410199	325645.073197	8.006340e-01	47	none	NaN	NaN
102	9	32	32	bathroom	sun_aleqenyvunhactkl.tif	325645.844733	325646.094931	325646.757901	7.005548e-01	22	39	325647.684105	1
102	9	33	25	bathroom	sun_agyqfjcfkdcydepw.tif	325648.480193	325648.730519	325649.393398	8.006340e-01	15	none	NaN	NaN
102	9	34	30	bathroom	sun_ajlawzvmubibwbpy.tif	325650.164928	325650.415076	325651.078081	8.173139e-01	20	none	NaN	NaN
102	9	35	58	bathroom	sun_axxbkopsgyouuebh.tif	325651.849607	325652.099946	325652.762682	7.505944e-01	48	none	NaN	NaN
102	9	36	48	bathroom	sun_aqrpegblszgcoujh.tif	325653.534306	325653.784418	325654.447342	7.672743e-01	38	none	NaN	NaN
102	9	37	36	bathroom	sun_ambriybtogmepttm.tif	325655.219004	325655.469332	325656.132187	8.173139e-01	26	none	NaN	NaN
102	9	38	33	bathroom	sun_aljolscmmzydegqp.tif	325656.903736	325657.153892	325657.816958	7.672743e-01	23	none	NaN	NaN
102	9	39	42	bathroom	sun_apeeialkgkuxddgh.tif	325658.588415	325658.838610	325659.501665	7.839542e-01	32	none	NaN	NaN
102	9	40	55	bathroom	sun_avhrdrntsqrjzccq.tif	325660.273129	325660.523335	325661.186346	6.671950e-01	45	37	325663.452234	1
102	9	41	46	bathroom	sun_apmqjbnwghzuhhzh.tif	325664.243024	325664.493221	325665.156273	6.838749e-01	36	none	NaN	NaN
102	9	42	22	bathroom	sun_agguqiubmwhqqunb.tif	325665.927712	325666.177849	325666.840832	6.505152e-01	12	none	NaN	NaN
102	9	43	27	bathroom	sun_ahcvzmoyaycdoftf.tif	325667.612459	325667.862614	325668.525536	6.838749e-01	17	none	NaN	NaN
102	9	44	47	bathroom	sun_apynckhmoftszqoq.tif	325669.297157	325669.547357	325670.210261	6.838749e-01	37	none	NaN	NaN
102	9	45	59	bathroom	sun_axyrejkiiaqiurjk.tif	325670.981818	325671.232139	325671.895044	7.339145e-01	49	none	NaN	NaN
102	9	46	35	bathroom	sun_alotolagknyrgtsk.tif	325672.666525	325672.916766	325673.579598	6.671950e-01	25	37	325674.532276	1
102	9	47	40	bathroom	sun_aofnryafpsjimzsb.tif	325675.335429	325675.585736	325676.248605	7.005548e-01	30	37	325677.428231	0
102	9	48	23	bathroom	sun_aghyqhbptboemmoq.tif	325678.221043	325678.471411	325679.134072	7.839542e-01	13	none	NaN	NaN
102	9	49	43	bathroom	sun_apjevzvycyhuqghb.tif	325679.905753	325680.156068	325680.818988	6.671950e-01	33	none	NaN	NaN
102	9	50	37	bathroom	sun_amzlamotzwfkwjco.tif	325681.590469	325681.840659	325682.503653	8.006340e-01	27	none	NaN	NaN
