subject	block	trial	texture	category	image	trialOnset	itiOnset	trialEnd	iti	EEGtrigger	responseKey	responseTime	accuracy
103	1	1	13	bathroom	sun_aavhrsfjbserjtht.tif	1376709.068497	1376709.327075	1376710.067301	7.507732e-01	3	none	NaN	NaN
103	1	2	49	bathroom	sun_asfwthctfqerjvxr.tif	1376710.836905	1376711.095501	1376711.835806	8.425343e-01	39	none	NaN	NaN
103	1	3	25	bathroom	sun_agyqfjcfkdcydepw.tif	1376712.605329	1376712.863912	1376713.604103	6.590120e-01	15	39	1376714.977257	1
103	1	4	38	bathroom	sun_anhioqovhscjqqwb.tif	1376715.750110	1376716.008698	1376716.748934	7.841409e-01	28	none	NaN	NaN
103	1	5	37	bathroom	sun_amzlamotzwfkwjco.tif	1376717.518533	1376717.777122	1376718.517236	7.174055e-01	27	none	NaN	NaN
103	1	6	16	bathroom	sun_acduarbnmmoglmiv.tif	1376719.286947	1376719.545534	1376720.285766	6.923797e-01	6	none	NaN	NaN
103	1	7	41	bathroom	sun_aoybiabnpadelefl.tif	1376721.055362	1376721.313953	1376722.054061	6.923797e-01	31	39	1376722.912011	1
103	1	8	55	bathroom	sun_avhrdrntsqrjzccq.tif	1376723.691312	1376723.949898	1376724.690008	6.923797e-01	45	none	NaN	NaN
103	1	9	60	bathroom	sun_azqyogdvyhahyram.tif	1376725.459725	1376725.718317	1376726.458434	7.424312e-01	50	39	1376727.736005	0
103	1	10	29	bathroom	sun_ahqjwnzgolcaoidx.tif	1376728.512751	1376728.771338	1376729.511465	7.340893e-01	19	none	NaN	NaN
103	1	11	15	bathroom	sun_abjtwfukuwddzted.tif	1376730.281171	1376730.539757	1376731.280058	8.341924e-01	5	37	1376732.151876	1
103	1	12	39	bathroom	sun_anryaplzeujmzfkd.tif	1376732.925481	1376733.184042	1376733.924226	6.756958e-01	29	none	NaN	NaN
103	1	13	17	bathroom	sun_acegryoqftbzowsg.tif	1376734.693878	1376734.952463	1376735.692592	8.091666e-01	7	none	NaN	NaN
103	1	14	30	bathroom	sun_ajlawzvmubibwbpy.tif	1376736.462293	1376736.720875	1376737.461066	8.175086e-01	20	none	NaN	NaN
103	1	15	23	bathroom	sun_aghyqhbptboemmoq.tif	1376738.230713	1376738.489302	1376739.229539	7.841409e-01	13	none	NaN	NaN
103	1	16	53	bathroom	sun_ausgutylgojavyoq.tif	1376739.999127	1376740.257720	1376740.997896	7.507732e-01	43	none	NaN	NaN
103	1	17	59	bathroom	sun_axyrejkiiaqiurjk.tif	1376741.767547	1376742.026141	1376742.766290	7.424312e-01	49	none	NaN	NaN
103	1	18	58	bathroom	sun_axxbkopsgyouuebh.tif	1376743.535964	1376743.794551	1376744.534689	7.340893e-01	48	none	NaN	NaN
103	1	19	14	bathroom	sun_abapwbhyhkfixyex.tif	1376745.304384	1376745.562974	1376746.303242	7.090635e-01	4	none	NaN	NaN
103	1	20	33	bathroom	sun_aljolscmmzydegqp.tif	1376747.072807	1376747.331389	1376748.071662	6.923797e-01	23	none	NaN	NaN
103	1	21	46	bathroom	sun_apmqjbnwghzuhhzh.tif	1376748.841216	1376749.099813	1376749.840029	7.340893e-01	36	39	1376750.656057	1
103	1	22	18	bathroom	sun_acgyywnybuveqsro.tif	1376751.427119	1376751.685704	1376752.425824	6.756958e-01	8	none	NaN	NaN
103	1	23	19	bathroom	sun_aclfzgynxzxlbepz.tif	1376753.195533	1376753.454119	1376754.194350	7.757989e-01	9	none	NaN	NaN
103	1	24	11	bathroom	labelme_sfxiulhjbhlyiyt.tif	1376754.963950	1376755.222542	1376755.962642	6.673539e-01	1	39	1376756.687983	1
103	1	25	27	bathroom	sun_ahcvzmoyaycdoftf.tif	1376757.466428	1376757.725015	1376758.465184	8.258505e-01	17	none	NaN	NaN
103	1	26	21	bathroom	sun_aggnnqpdorgxpvce.tif	1376759.234853	1376759.493437	1376760.233659	7.591151e-01	11	none	NaN	NaN
103	1	27	42	bathroom	sun_apeeialkgkuxddgh.tif	1376761.003266	1376761.261861	1376762.002164	7.591151e-01	32	none	NaN	NaN
103	1	28	56	bathroom	sun_awnqiikzaispgmwo.tif	1376762.771686	1376763.030271	1376763.770489	8.175086e-01	46	none	NaN	NaN
103	1	29	44	bathroom	sun_apkruvsevgegsdwp.tif	1376764.540104	1376764.798690	1376765.538931	7.424312e-01	34	none	NaN	NaN
103	1	30	20	bathroom	sun_afcoljnjfoxjtgja.tif	1376766.308524	1376766.567117	1376767.307326	7.174055e-01	10	none	NaN	NaN
103	1	31	28	bathroom	sun_ahijqszoswveeyji.tif	1376768.076941	1376768.335531	1376769.075665	8.425343e-01	18	none	NaN	NaN
103	1	32	26	bathroom	sun_ahaulkltgpkeeemi.tif	1376769.845356	1376770.103943	1376770.844148	7.674570e-01	16	none	NaN	NaN
103	1	33	22	bathroom	sun_agguqiubmwhqqunb.tif	1376771.613776	1376771.872362	1376772.612503	6.923797e-01	12	none	NaN	NaN
103	1	34	47	bathroom	sun_apynckhmoftszqoq.tif	1376773.382193	1376773.640783	1376774.380930	7.591151e-01	37	none	NaN	NaN
103	1	35	45	bathroom	sun_apkxzenqapsujocq.tif	1376775.150616	1376775.409202	1376776.149310	8.175086e-01	35	none	NaN	NaN
103	1	36	34	bathroom	sun_alkosphxlxwjwgjd.tif	1376776.919031	1376777.177619	1376777.917940	8.341924e-01	24	none	NaN	NaN
103	1	37	12	bathroom	sun_aapitsgbtktqubfy.tif	1376778.687451	1376778.946035	1376779.686289	8.091666e-01	2	none	NaN	NaN
103	1	38	52	bathroom	sun_aunuadmjocsddsrl.tif	1376780.455870	1376780.714459	1376781.454600	7.090635e-01	42	none	NaN	NaN
103	1	39	50	bathroom	sun_aspsyogrekjtfozg.tif	1376782.224284	1376782.482875	1376783.222984	7.924828e-01	40	none	NaN	NaN
103	1	40	54	bathroom	sun_auzqhkafidnkrwmo.tif	1376783.992705	1376784.251295	1376784.991421	6.506701e-01	44	none	NaN	NaN
103	1	41	31	bathroom	sun_akiytfaagpdsphgz.tif	1376785.761121	1376786.019712	1376786.759850	6.590120e-01	21	39	1376789.015915	1
103	1	42	48	bathroom	sun_aqrpegblszgcoujh.tif	1376789.790111	1376790.048701	1376790.788881	8.091666e-01	38	none	NaN	NaN
103	1	43	35	bathroom	sun_alotolagknyrgtsk.tif	1376791.558533	1376791.817122	1376792.557382	8.008247e-01	25	none	NaN	NaN
103	1	44	24	bathroom	sun_agrwbmhcpmfuwmsg.tif	1376793.326949	1376793.585538	1376794.325744	7.257474e-01	14	none	NaN	NaN
103	1	45	40	bathroom	sun_aofnryafpsjimzsb.tif	1376795.095365	1376795.353952	1376796.094262	7.841409e-01	30	none	NaN	NaN
103	1	46	36	bathroom	sun_ambriybtogmepttm.tif	1376796.863784	1376797.122376	1376797.862659	7.757989e-01	26	none	NaN	NaN
103	1	47	57	bathroom	sun_axldvoqbuvuggfmq.tif	1376798.632206	1376798.890793	1376799.630904	8.258505e-01	47	none	NaN	NaN
103	1	48	43	bathroom	sun_apjevzvycyhuqghb.tif	1376800.400624	1376800.659211	1376801.399465	6.506701e-01	33	none	NaN	NaN
103	1	49	32	bathroom	sun_aleqenyvunhactkl.tif	1376802.169039	1376802.427628	1376803.169018	7.007216e-01	22	none	NaN	NaN
103	1	50	51	bathroom	sun_atstyziqcmkahyxk.tif	1376803.937455	1376804.196049	1376804.936312	8.008247e-01	41	none	NaN	NaN
103	1	51	59	bathroom	sun_axyrejkiiaqiurjk.tif	1376805.705877	1376805.964462	1376806.704631	7.007216e-01	49	none	NaN	NaN
103	1	52	11	bathroom	labelme_sfxiulhjbhlyiyt.tif	1376807.474296	1376807.732885	1376808.473076	7.340893e-01	1	none	NaN	NaN
103	1	53	25	bathroom	sun_agyqfjcfkdcydepw.tif	1376809.242714	1376809.501304	1376810.241438	7.507732e-01	15	none	NaN	NaN
103	1	54	16	bathroom	sun_acduarbnmmoglmiv.tif	1376811.011131	1376811.269721	1376812.009913	7.174055e-01	6	none	NaN	NaN
103	1	55	21	bathroom	sun_aggnnqpdorgxpvce.tif	1376812.779548	1376813.038142	1376813.778434	7.591151e-01	11	none	NaN	NaN
103	1	56	51	bathroom	sun_atstyziqcmkahyxk.tif	1376814.547972	1376814.806557	1376815.546666	7.924828e-01	41	none	NaN	NaN
103	1	57	32	bathroom	sun_aleqenyvunhactkl.tif	1376816.316390	1376816.574975	1376817.315089	7.924828e-01	22	none	NaN	NaN
103	1	58	33	bathroom	sun_aljolscmmzydegqp.tif	1376818.084803	1376818.343395	1376819.083566	7.674570e-01	23	none	NaN	NaN
103	1	59	18	bathroom	sun_acgyywnybuveqsro.tif	1376819.853225	1376820.111809	1376820.852126	7.090635e-01	8	none	NaN	NaN
103	1	60	36	bathroom	sun_ambriybtogmepttm.tif	1376821.621641	1376821.880232	1376822.620447	7.841409e-01	26	none	NaN	NaN
103	1	61	13	bathroom	sun_aavhrsfjbserjtht.tif	1376823.390060	1376823.648650	1376824.388810	8.508762e-01	3	none	NaN	NaN
103	1	62	56	bathroom	sun_awnqiikzaispgmwo.tif	1376825.158482	1376825.417063	1376826.157390	7.757989e-01	46	37	1376827.095651	0
103	1	63	14	bathroom	sun_abapwbhyhkfixyex.tif	1376827.869493	1376828.128084	1376828.868321	6.590120e-01	4	none	NaN	NaN
103	1	64	45	bathroom	sun_apkxzenqapsujocq.tif	1376829.637915	1376829.896507	1376830.636673	8.091666e-01	35	none	NaN	NaN
103	1	65	38	bathroom	sun_anhioqovhscjqqwb.tif	1376831.406334	1376831.664921	1376832.405201	8.258505e-01	28	37	1376833.191951	1
103	1	66	44	bathroom	sun_apkruvsevgegsdwp.tif	1376833.967204	1376834.225790	1376834.965964	8.008247e-01	34	37	1376836.471976	1
103	1	67	35	bathroom	sun_alotolagknyrgtsk.tif	1376837.245447	1376837.504032	1376838.244248	6.673539e-01	25	none	NaN	NaN
103	1	68	55	bathroom	sun_avhrdrntsqrjzccq.tif	1376839.013864	1376839.272458	1376840.012714	6.756958e-01	45	39	1376841.655915	1
103	1	69	22	bathroom	sun_agguqiubmwhqqunb.tif	1376842.433920	1376842.692512	1376843.432820	6.840378e-01	12	none	NaN	NaN
103	1	70	24	bathroom	sun_agrwbmhcpmfuwmsg.tif	1376844.202339	1376844.460930	1376845.201094	7.424312e-01	14	none	NaN	NaN
103	1	71	47	bathroom	sun_apynckhmoftszqoq.tif	1376845.970760	1376846.229337	1376846.969521	8.341924e-01	37	none	NaN	NaN
103	1	72	53	bathroom	sun_ausgutylgojavyoq.tif	1376847.739177	1376847.997763	1376848.737955	7.591151e-01	43	none	NaN	NaN
103	1	73	15	bathroom	sun_abjtwfukuwddzted.tif	1376849.507591	1376849.766179	1376850.506483	8.008247e-01	5	none	NaN	NaN
103	1	74	28	bathroom	sun_ahijqszoswveeyji.tif	1376851.276010	1376851.534599	1376852.274922	7.257474e-01	18	none	NaN	NaN
103	1	75	26	bathroom	sun_ahaulkltgpkeeemi.tif	1376853.044430	1376853.303022	1376854.043344	8.175086e-01	16	37	1376855.007991	1
103	1	76	58	bathroom	sun_axxbkopsgyouuebh.tif	1376855.780478	1376856.039062	1376856.779277	6.840378e-01	48	none	NaN	NaN
103	1	77	17	bathroom	sun_acegryoqftbzowsg.tif	1376857.548892	1376857.807481	1376858.547763	6.840378e-01	7	37	1376859.624002	1
103	1	78	54	bathroom	sun_auzqhkafidnkrwmo.tif	1376860.401715	1376860.660303	1376861.400514	8.341924e-01	44	none	NaN	NaN
103	1	79	30	bathroom	sun_ajlawzvmubibwbpy.tif	1376862.170133	1376862.428725	1376863.168836	7.174055e-01	20	none	NaN	NaN
103	1	80	19	bathroom	sun_aclfzgynxzxlbepz.tif	1376863.938552	1376864.197142	1376864.937392	8.258505e-01	9	none	NaN	NaN
103	1	81	60	bathroom	sun_azqyogdvyhahyram.tif	1376865.706968	1376865.965563	1376866.705779	7.257474e-01	50	none	NaN	NaN
103	1	82	50	bathroom	sun_aspsyogrekjtfozg.tif	1376867.475388	1376867.733976	1376868.474121	7.757989e-01	40	none	NaN	NaN
103	1	83	42	bathroom	sun_apeeialkgkuxddgh.tif	1376869.243805	1376869.502398	1376870.242712	7.007216e-01	32	none	NaN	NaN
103	1	84	49	bathroom	sun_asfwthctfqerjvxr.tif	1376871.012225	1376871.270817	1376872.011089	7.674570e-01	39	none	NaN	NaN
103	1	85	27	bathroom	sun_ahcvzmoyaycdoftf.tif	1376872.780645	1376873.039237	1376873.779547	7.007216e-01	17	none	NaN	NaN
103	1	86	12	bathroom	sun_aapitsgbtktqubfy.tif	1376874.549063	1376874.807651	1376875.547822	7.257474e-01	2	none	NaN	NaN
103	1	87	23	bathroom	sun_aghyqhbptboemmoq.tif	1376876.317485	1376876.576072	1376877.316370	6.506701e-01	13	39	1376878.464061	1
103	1	88	20	bathroom	sun_afcoljnjfoxjtgja.tif	1376879.237042	1376879.495629	1376880.235877	8.425343e-01	10	none	NaN	NaN
103	1	89	40	bathroom	sun_aofnryafpsjimzsb.tif	1376881.005456	1376881.264045	1376882.004166	6.590120e-01	30	none	NaN	NaN
103	1	90	39	bathroom	sun_anryaplzeujmzfkd.tif	1376882.773877	1376883.032464	1376883.772734	6.840378e-01	29	none	NaN	NaN
103	1	91	43	bathroom	sun_apjevzvycyhuqghb.tif	1376884.542299	1376884.800879	1376885.541209	8.258505e-01	33	none	NaN	NaN
103	1	92	34	bathroom	sun_alkosphxlxwjwgjd.tif	1376886.310715	1376886.569297	1376887.309548	6.673539e-01	24	none	NaN	NaN
103	1	93	41	bathroom	sun_aoybiabnpadelefl.tif	1376888.079130	1376888.337717	1376889.077910	8.425343e-01	31	none	NaN	NaN
103	1	94	46	bathroom	sun_apmqjbnwghzuhhzh.tif	1376889.847547	1376890.106133	1376890.846334	6.756958e-01	36	none	NaN	NaN
103	1	95	57	bathroom	sun_axldvoqbuvuggfmq.tif	1376891.615963	1376891.874554	1376892.614737	8.508762e-01	47	none	NaN	NaN
103	1	96	31	bathroom	sun_akiytfaagpdsphgz.tif	1376893.384386	1376893.642973	1376894.383113	7.507732e-01	21	37	1376895.183825	1
103	1	97	37	bathroom	sun_amzlamotzwfkwjco.tif	1376895.961936	1376896.220525	1376896.960672	7.090635e-01	27	none	NaN	NaN
103	1	98	29	bathroom	sun_ahqjwnzgolcaoidx.tif	1376897.730353	1376897.988940	1376898.729044	7.674570e-01	19	none	NaN	NaN
103	1	99	52	bathroom	sun_aunuadmjocsddsrl.tif	1376899.498769	1376899.757360	1376900.497586	7.924828e-01	42	none	NaN	NaN
103	1	100	48	bathroom	sun_aqrpegblszgcoujh.tif	1376901.267189	1376901.525776	1376902.265973	6.673539e-01	38	none	NaN	NaN
103	2	1	62	kitchen	labelme_kxvouciolcpqplr.tif	1376943.842692	1376944.101280	1376944.791452	8.258505e-01	52	none	NaN	NaN
103	2	2	82	kitchen	sun_aenotlpyftoioydp.tif	1376945.561057	1376945.819644	1376946.509889	7.007216e-01	72	none	NaN	NaN
103	2	3	80	kitchen	sun_aegoxogugdkwpmpj.tif	1376947.279422	1376947.538016	1376948.228135	8.258505e-01	70	none	NaN	NaN
103	2	4	84	kitchen	sun_aexklacwqwezaorf.tif	1376948.997793	1376949.256387	1376949.946656	7.507732e-01	74	none	NaN	NaN
103	2	5	88	kitchen	sun_agubuxuukhzyzpdp.tif	1376950.716164	1376950.974753	1376951.664919	7.424312e-01	78	none	NaN	NaN
103	2	6	85	kitchen	sun_afuyedyxivkhecmu.tif	1376952.434533	1376952.693121	1376953.383378	7.924828e-01	75	37	1376954.287971	1
103	2	7	73	kitchen	sun_abrcnpqqhmjwekyf.tif	1376955.062130	1376955.320724	1376956.010940	7.591151e-01	63	none	NaN	NaN
103	2	8	99	kitchen	sun_akcjzhbbjlbogpdi.tif	1376956.780500	1376957.039090	1376957.729214	7.257474e-01	89	none	NaN	NaN
103	2	9	75	kitchen	sun_acgtpgfybqjmzeyw.tif	1376958.498872	1376958.757462	1376959.447664	7.591151e-01	65	none	NaN	NaN
103	2	10	92	kitchen	sun_ahpczsiumwwocjkv.tif	1376960.217238	1376960.475829	1376961.165968	7.591151e-01	82	none	NaN	NaN
103	2	11	67	kitchen	sun_aarfiyshqohlwkmo.tif	1376961.935609	1376962.194197	1376962.884292	7.507732e-01	57	39	1376963.647941	0
103	2	12	89	kitchen	sun_agzzivivdpnawacl.tif	1376964.421403	1376964.679996	1376965.370171	7.090635e-01	79	none	NaN	NaN
103	2	13	87	kitchen	sun_agorklincwxrdtga.tif	1376966.139773	1376966.398357	1376967.088586	8.341924e-01	77	none	NaN	NaN
103	2	14	70	kitchen	sun_abdxkyyxwfskuaqb.tif	1376967.858138	1376968.116732	1376968.806833	7.007216e-01	60	none	NaN	NaN
103	2	15	69	kitchen	sun_abdenxonkemggwsq.tif	1376969.576508	1376969.835096	1376970.525322	6.506701e-01	59	none	NaN	NaN
103	2	16	66	kitchen	sun_aapllqyqlykszopd.tif	1376971.294877	1376971.553468	1376972.243545	7.340893e-01	56	37	1376973.168377	0
103	2	17	104	kitchen	sun_auticobqsbwgoppi.tif	1376973.939163	1376974.197752	1376974.887894	8.008247e-01	94	none	NaN	NaN
103	2	18	90	kitchen	sun_ahdycvpopffkzzsu.tif	1376975.657531	1376975.916116	1376976.606374	6.840378e-01	80	none	NaN	NaN
103	2	19	96	kitchen	sun_ajcbwwvdlsvjyzje.tif	1376977.375899	1376977.634490	1376978.324705	6.923797e-01	86	none	NaN	NaN
103	2	20	65	kitchen	sun_aamedkxepzlwuxes.tif	1376979.094263	1376979.352857	1376980.042963	7.090635e-01	55	none	NaN	NaN
103	2	21	106	kitchen	sun_awcpdzzznmweyyhv.tif	1376980.812639	1376981.071224	1376981.761341	7.674570e-01	96	none	NaN	NaN
103	2	22	83	kitchen	sun_aeqdocilnnpuvuhx.tif	1376982.531003	1376982.789592	1376983.479684	8.425343e-01	73	none	NaN	NaN
103	2	23	64	kitchen	sun_aadbddgrdsjugojn.tif	1376984.249374	1376984.507962	1376985.198225	7.841409e-01	54	none	NaN	NaN
103	2	24	61	kitchen	labelme_brsyyvweiuaazfr.tif	1376985.967744	1376986.226331	1376986.916421	7.174055e-01	51	none	NaN	NaN
103	2	25	107	kitchen	sun_axyyrmzcupyhlivc.tif	1376987.686111	1376987.944696	1376988.634810	7.340893e-01	97	none	NaN	NaN
103	2	26	91	kitchen	sun_ahljzhgcdpomplvg.tif	1376989.404480	1376989.663069	1376990.353279	6.590120e-01	81	none	NaN	NaN
103	2	27	94	kitchen	sun_ahywdevtimnqcsln.tif	1376991.122842	1376991.381441	1376992.071496	7.507732e-01	84	none	NaN	NaN
103	2	28	78	kitchen	sun_adgqasybjyktddhj.tif	1376992.841218	1376993.099808	1376993.789863	7.257474e-01	68	none	NaN	NaN
103	2	29	102	kitchen	sun_auaiucuqpdausiva.tif	1376994.559583	1376994.818172	1376995.508312	6.923797e-01	92	none	NaN	NaN
103	2	30	95	kitchen	sun_aixorpehvfykdynp.tif	1376996.277953	1376996.536543	1376997.226720	6.673539e-01	85	none	NaN	NaN
103	2	31	81	kitchen	sun_aehawpgmrlhlvcow.tif	1376997.996320	1376998.254909	1376998.945111	7.007216e-01	71	39	1376999.759957	1
103	2	32	74	kitchen	sun_acfmftudsenhrfhy.tif	1377000.532165	1377000.790757	1377001.480930	8.341924e-01	64	37	1377002.424263	1
103	2	33	72	kitchen	sun_abpwyqmlzafvklqo.tif	1377003.201475	1377003.460061	1377004.150168	7.090635e-01	62	none	NaN	NaN
103	2	34	109	kitchen	sun_aypmqwcualkenuoe.tif	1377004.919845	1377005.178433	1377005.868683	7.174055e-01	99	37	1377006.823895	1
103	2	35	63	kitchen	labelme_rykdqxenmhulbdn.tif	1377007.597497	1377007.856082	1377008.546228	7.757989e-01	53	none	NaN	NaN
103	2	36	105	kitchen	sun_avszsnwsbuqfgzbn.tif	1377009.315863	1377009.574455	1377010.264607	7.090635e-01	95	none	NaN	NaN
103	2	37	98	kitchen	sun_akchetnepxlcxhsu.tif	1377011.034233	1377011.292826	1377011.983006	8.091666e-01	88	none	NaN	NaN
103	2	38	86	kitchen	sun_aggjlwcdjsjcaemh.tif	1377012.752605	1377013.011189	1377013.701445	6.673539e-01	76	none	NaN	NaN
103	2	39	68	kitchen	sun_aaxxjlsuzvqlgylf.tif	1377014.470971	1377014.729557	1377015.419756	7.591151e-01	58	none	NaN	NaN
103	2	40	71	kitchen	sun_abftihopvusyfakt.tif	1377016.189339	1377016.447928	1377017.138022	8.425343e-01	61	none	NaN	NaN
103	2	41	93	kitchen	sun_ahspylgoovwmwvgk.tif	1377017.907709	1377018.166294	1377018.856510	7.674570e-01	83	37	1377019.768006	0
103	2	42	100	kitchen	sun_amjjdeyrggfqgmom.tif	1377020.543647	1377020.802238	1377021.492358	8.175086e-01	90	none	NaN	NaN
103	2	43	108	kitchen	sun_aymvwlarqodbwuoc.tif	1377022.262021	1377022.520605	1377023.210853	6.756958e-01	98	none	NaN	NaN
103	2	44	76	kitchen	sun_acwjdupvyjsugpay.tif	1377023.980389	1377024.238978	1377024.929132	7.841409e-01	66	none	NaN	NaN
103	2	45	97	kitchen	sun_ajkqhtgcbgpcwrwn.tif	1377025.698756	1377025.957346	1377026.647549	7.757989e-01	87	none	NaN	NaN
103	2	46	79	kitchen	sun_admlmbcdswaszruo.tif	1377027.417123	1377027.675713	1377028.365790	8.258505e-01	69	none	NaN	NaN
103	2	47	77	kitchen	sun_acxkpeoqbwcxfvip.tif	1377029.135492	1377029.394082	1377030.084149	7.924828e-01	67	none	NaN	NaN
103	2	48	103	kitchen	sun_aunzlwrbjumxhwdj.tif	1377030.853861	1377031.112451	1377031.802500	7.841409e-01	93	none	NaN	NaN
103	2	49	110	kitchen	sun_azmutvzbxypaceni.tif	1377032.572232	1377032.830822	1377033.520910	8.008247e-01	100	none	NaN	NaN
103	2	50	101	kitchen	sun_aqeaevwwwjoqhzvl.tif	1377034.290595	1377034.549191	1377035.239402	7.174055e-01	91	none	NaN	NaN
103	2	51	88	kitchen	sun_agubuxuukhzyzpdp.tif	1377036.008966	1377036.267555	1377036.957766	8.175086e-01	78	none	NaN	NaN
103	2	52	92	kitchen	sun_ahpczsiumwwocjkv.tif	1377037.727336	1377037.985928	1377038.676166	6.923797e-01	82	39	1377039.591992	1
103	2	53	66	kitchen	sun_aapllqyqlykszopd.tif	1377040.363277	1377040.621866	1377041.312050	8.091666e-01	56	none	NaN	NaN
103	2	54	102	kitchen	sun_auaiucuqpdausiva.tif	1377042.081646	1377042.340236	1377043.030475	7.924828e-01	92	37	1377043.759913	1
103	2	55	78	kitchen	sun_adgqasybjyktddhj.tif	1377044.534072	1377044.792661	1377045.482776	7.924828e-01	68	none	NaN	NaN
103	2	56	68	kitchen	sun_aaxxjlsuzvqlgylf.tif	1377046.252443	1377046.511032	1377047.201116	6.756958e-01	58	none	NaN	NaN
103	2	57	62	kitchen	labelme_kxvouciolcpqplr.tif	1377047.970816	1377048.229397	1377048.919606	6.590120e-01	52	none	NaN	NaN
103	2	58	100	kitchen	sun_amjjdeyrggfqgmom.tif	1377049.689177	1377049.947774	1377050.638006	6.923797e-01	90	none	NaN	NaN
103	2	59	74	kitchen	sun_acfmftudsenhrfhy.tif	1377051.407550	1377051.666141	1377052.356406	7.174055e-01	64	none	NaN	NaN
103	2	60	109	kitchen	sun_aypmqwcualkenuoe.tif	1377053.125916	1377053.384506	1377054.074723	8.425343e-01	99	none	NaN	NaN
103	2	61	105	kitchen	sun_avszsnwsbuqfgzbn.tif	1377054.844286	1377055.102878	1377055.793016	7.591151e-01	95	none	NaN	NaN
103	2	62	67	kitchen	sun_aarfiyshqohlwkmo.tif	1377056.562658	1377056.821241	1377057.511308	6.840378e-01	57	none	NaN	NaN
103	2	63	83	kitchen	sun_aeqdocilnnpuvuhx.tif	1377058.281025	1377058.539616	1377059.229678	6.673539e-01	73	none	NaN	NaN
103	2	64	90	kitchen	sun_ahdycvpopffkzzsu.tif	1377059.999392	1377060.257979	1377060.948213	6.756958e-01	80	none	NaN	NaN
103	2	65	75	kitchen	sun_acgtpgfybqjmzeyw.tif	1377061.717761	1377061.976347	1377062.666598	7.757989e-01	65	none	NaN	NaN
103	2	66	101	kitchen	sun_aqeaevwwwjoqhzvl.tif	1377063.436124	1377063.694718	1377064.385000	7.757989e-01	91	none	NaN	NaN
103	2	67	82	kitchen	sun_aenotlpyftoioydp.tif	1377065.154498	1377065.413086	1377066.103263	6.840378e-01	72	37	1377067.623878	0
103	2	68	97	kitchen	sun_ajkqhtgcbgpcwrwn.tif	1377068.399375	1377068.657967	1377069.348167	7.007216e-01	87	none	NaN	NaN
103	2	69	77	kitchen	sun_acxkpeoqbwcxfvip.tif	1377070.117746	1377070.376337	1377071.066563	7.340893e-01	67	none	NaN	NaN
103	2	70	63	kitchen	labelme_rykdqxenmhulbdn.tif	1377071.836109	1377072.094702	1377072.784798	7.424312e-01	53	none	NaN	NaN
103	2	71	87	kitchen	sun_agorklincwxrdtga.tif	1377073.554482	1377073.813070	1377074.503326	8.341924e-01	77	none	NaN	NaN
103	2	72	84	kitchen	sun_aexklacwqwezaorf.tif	1377075.272852	1377075.531440	1377076.221634	7.674570e-01	74	none	NaN	NaN
103	2	73	94	kitchen	sun_ahywdevtimnqcsln.tif	1377076.991217	1377077.249811	1377077.940047	6.923797e-01	84	37	1377078.752002	1
103	2	74	65	kitchen	sun_aamedkxepzlwuxes.tif	1377079.527065	1377079.785652	1377080.475869	8.508762e-01	55	none	NaN	NaN
103	2	75	96	kitchen	sun_ajcbwwvdlsvjyzje.tif	1377081.245427	1377081.504022	1377082.194242	7.507732e-01	86	39	1377083.247663	1
103	2	76	106	kitchen	sun_awcpdzzznmweyyhv.tif	1377084.023178	1377084.281766	1377084.971842	8.008247e-01	96	none	NaN	NaN
103	2	77	80	kitchen	sun_aegoxogugdkwpmpj.tif	1377085.741550	1377086.000141	1377086.690281	8.258505e-01	70	37	1377087.480089	1
103	2	78	95	kitchen	sun_aixorpehvfykdynp.tif	1377088.252372	1377088.510962	1377089.201097	7.424312e-01	85	none	NaN	NaN
103	2	79	81	kitchen	sun_aehawpgmrlhlvcow.tif	1377089.970740	1377090.229324	1377090.919436	8.175086e-01	71	none	NaN	NaN
103	2	80	76	kitchen	sun_acwjdupvyjsugpay.tif	1377091.680770	1377091.939353	1377092.629632	6.590120e-01	66	39	1377093.584057	1
103	2	81	61	kitchen	labelme_brsyyvweiuaazfr.tif	1377094.358420	1377094.617008	1377095.307062	8.091666e-01	51	none	NaN	NaN
103	2	82	98	kitchen	sun_akchetnepxlcxhsu.tif	1377096.076789	1377096.335375	1377097.025556	8.008247e-01	88	none	NaN	NaN
103	2	83	91	kitchen	sun_ahljzhgcdpomplvg.tif	1377097.795158	1377098.053743	1377098.743854	6.506701e-01	81	none	NaN	NaN
103	2	84	72	kitchen	sun_abpwyqmlzafvklqo.tif	1377099.513525	1377099.772109	1377100.462286	6.590120e-01	62	none	NaN	NaN
103	2	85	107	kitchen	sun_axyyrmzcupyhlivc.tif	1377101.231891	1377101.490477	1377102.180576	7.424312e-01	97	39	1377103.287960	1
103	2	86	104	kitchen	sun_auticobqsbwgoppi.tif	1377104.059692	1377104.318282	1377105.008373	6.840378e-01	94	none	NaN	NaN
103	2	87	108	kitchen	sun_aymvwlarqodbwuoc.tif	1377105.778062	1377106.036646	1377106.726866	7.257474e-01	98	none	NaN	NaN
103	2	88	93	kitchen	sun_ahspylgoovwmwvgk.tif	1377107.496427	1377107.755020	1377108.445085	8.258505e-01	83	none	NaN	NaN
103	2	89	86	kitchen	sun_aggjlwcdjsjcaemh.tif	1377109.214797	1377109.473388	1377110.163558	8.175086e-01	76	none	NaN	NaN
103	2	90	103	kitchen	sun_aunzlwrbjumxhwdj.tif	1377110.933166	1377111.191753	1377111.881963	6.506701e-01	93	none	NaN	NaN
103	2	91	73	kitchen	sun_abrcnpqqhmjwekyf.tif	1377112.651534	1377112.910123	1377113.600385	7.340893e-01	63	none	NaN	NaN
103	2	92	89	kitchen	sun_agzzivivdpnawacl.tif	1377114.369899	1377114.628493	1377115.318545	7.674570e-01	79	none	NaN	NaN
103	2	93	71	kitchen	sun_abftihopvusyfakt.tif	1377116.088272	1377116.346861	1377117.037049	6.756958e-01	61	none	NaN	NaN
103	2	94	85	kitchen	sun_afuyedyxivkhecmu.tif	1377117.806637	1377118.065233	1377118.755350	8.508762e-01	75	none	NaN	NaN
103	2	95	64	kitchen	sun_aadbddgrdsjugojn.tif	1377119.525008	1377119.783600	1377120.473690	6.673539e-01	54	none	NaN	NaN
103	2	96	110	kitchen	sun_azmutvzbxypaceni.tif	1377121.243377	1377121.501972	1377122.192020	8.425343e-01	100	none	NaN	NaN
103	2	97	70	kitchen	sun_abdxkyyxwfskuaqb.tif	1377122.961748	1377123.220337	1377123.910525	8.341924e-01	60	none	NaN	NaN
103	2	98	99	kitchen	sun_akcjzhbbjlbogpdi.tif	1377124.680115	1377124.938703	1377125.628794	7.841409e-01	89	none	NaN	NaN
103	2	99	79	kitchen	sun_admlmbcdswaszruo.tif	1377126.398481	1377126.657071	1377127.347173	8.091666e-01	69	none	NaN	NaN
103	2	100	69	kitchen	sun_abdenxonkemggwsq.tif	1377128.116848	1377128.375441	1377129.065492	7.257474e-01	59	none	NaN	NaN
103	3	1	27	bathroom	sun_ahcvzmoyaycdoftf.tif	1377141.621893	1377141.880479	1377142.695762	8.258505e-01	17	none	NaN	NaN
103	3	2	21	bathroom	sun_aggnnqpdorgxpvce.tif	1377143.465382	1377143.723973	1377144.539366	6.923797e-01	11	39	1377145.704083	1
103	3	3	19	bathroom	sun_aclfzgynxzxlbepz.tif	1377146.476698	1377146.735291	1377147.550485	8.258505e-01	9	none	NaN	NaN
103	3	4	46	bathroom	sun_apmqjbnwghzuhhzh.tif	1377148.320192	1377148.578773	1377149.394290	7.090635e-01	36	none	NaN	NaN
103	3	5	17	bathroom	sun_acegryoqftbzowsg.tif	1377150.163683	1377150.422275	1377151.237581	8.425343e-01	7	none	NaN	NaN
103	3	6	34	bathroom	sun_alkosphxlxwjwgjd.tif	1377152.007174	1377152.265768	1377153.081166	7.257474e-01	24	none	NaN	NaN
103	3	7	18	bathroom	sun_acgyywnybuveqsro.tif	1377153.850669	1377154.109261	1377154.924549	7.090635e-01	8	none	NaN	NaN
103	3	8	38	bathroom	sun_anhioqovhscjqqwb.tif	1377155.694163	1377155.952751	1377156.768126	6.756958e-01	28	none	NaN	NaN
103	3	9	50	bathroom	sun_aspsyogrekjtfozg.tif	1377157.537650	1377157.796241	1377158.611609	8.425343e-01	40	none	NaN	NaN
103	3	10	29	bathroom	sun_ahqjwnzgolcaoidx.tif	1377159.381149	1377159.639733	1377160.455004	7.090635e-01	19	37	1377161.712010	1
103	3	11	53	bathroom	sun_ausgutylgojavyoq.tif	1377162.484215	1377162.742809	1377163.558196	6.590120e-01	43	none	NaN	NaN
103	3	12	59	bathroom	sun_axyrejkiiaqiurjk.tif	1377164.327707	1377164.586300	1377165.401684	7.841409e-01	49	none	NaN	NaN
103	3	13	24	bathroom	sun_agrwbmhcpmfuwmsg.tif	1377166.171203	1377166.429794	1377167.245097	8.008247e-01	14	none	NaN	NaN
103	3	14	58	bathroom	sun_axxbkopsgyouuebh.tif	1377168.014694	1377168.273282	1377169.088473	7.507732e-01	48	none	NaN	NaN
103	3	15	31	bathroom	sun_akiytfaagpdsphgz.tif	1377169.858188	1377170.116798	1377170.932121	6.840378e-01	21	none	NaN	NaN
103	3	16	13	bathroom	sun_aavhrsfjbserjtht.tif	1377171.701681	1377171.960268	1377172.775651	7.591151e-01	3	none	NaN	NaN
103	3	17	54	bathroom	sun_auzqhkafidnkrwmo.tif	1377173.545171	1377173.803760	1377174.619006	8.341924e-01	44	37	1377176.183867	1
103	3	18	37	bathroom	sun_amzlamotzwfkwjco.tif	1377176.956883	1377177.215473	1377178.030851	7.340893e-01	27	none	NaN	NaN
103	3	19	49	bathroom	sun_asfwthctfqerjvxr.tif	1377178.800377	1377179.058961	1377179.874242	7.174055e-01	39	none	NaN	NaN
103	3	20	45	bathroom	sun_apkxzenqapsujocq.tif	1377180.643869	1377180.902462	1377181.717713	6.756958e-01	35	none	NaN	NaN
103	3	21	39	bathroom	sun_anryaplzeujmzfkd.tif	1377182.487360	1377182.745950	1377183.561150	6.506701e-01	29	none	NaN	NaN
103	3	22	51	bathroom	sun_atstyziqcmkahyxk.tif	1377184.330853	1377184.589439	1377185.404717	7.674570e-01	41	none	NaN	NaN
103	3	23	30	bathroom	sun_ajlawzvmubibwbpy.tif	1377186.174347	1377186.432934	1377187.249189	6.923797e-01	20	none	NaN	NaN
103	3	24	33	bathroom	sun_aljolscmmzydegqp.tif	1377188.017837	1377188.276418	1377189.091649	7.841409e-01	23	none	NaN	NaN
103	3	25	20	bathroom	sun_afcoljnjfoxjtgja.tif	1377189.861330	1377190.119914	1377190.935161	6.756958e-01	10	none	NaN	NaN
103	3	26	60	bathroom	sun_azqyogdvyhahyram.tif	1377191.704824	1377191.963413	1377192.778721	8.091666e-01	50	none	NaN	NaN
103	3	27	22	bathroom	sun_agguqiubmwhqqunb.tif	1377193.548317	1377193.806906	1377194.622163	7.674570e-01	12	37	1377195.752051	0
103	3	28	55	bathroom	sun_avhrdrntsqrjzccq.tif	1377196.526257	1377196.784847	1377197.600031	7.174055e-01	45	none	NaN	NaN
103	3	29	52	bathroom	sun_aunuadmjocsddsrl.tif	1377198.369758	1377198.628341	1377199.443727	7.007216e-01	42	none	NaN	NaN
103	3	30	14	bathroom	sun_abapwbhyhkfixyex.tif	1377200.213249	1377200.471835	1377201.287178	7.924828e-01	4	none	NaN	NaN
103	3	31	35	bathroom	sun_alotolagknyrgtsk.tif	1377202.056739	1377202.315327	1377203.130602	7.757989e-01	25	39	1377204.847807	1
103	3	32	11	bathroom	labelme_sfxiulhjbhlyiyt.tif	1377205.618604	1377205.877192	1377206.692420	7.340893e-01	1	none	NaN	NaN
103	3	33	48	bathroom	sun_aqrpegblszgcoujh.tif	1377207.462092	1377207.720686	1377208.535903	8.258505e-01	38	none	NaN	NaN
103	3	34	28	bathroom	sun_ahijqszoswveeyji.tif	1377209.305579	1377209.564178	1377210.379432	7.507732e-01	18	39	1377211.512028	1
103	3	35	57	bathroom	sun_axldvoqbuvuggfmq.tif	1377212.283524	1377212.542119	1377213.357348	7.924828e-01	47	none	NaN	NaN
103	3	36	26	bathroom	sun_ahaulkltgpkeeemi.tif	1377214.127027	1377214.385616	1377215.200865	7.257474e-01	16	none	NaN	NaN
103	3	37	23	bathroom	sun_aghyqhbptboemmoq.tif	1377215.970520	1377216.229105	1377217.044344	8.175086e-01	13	none	NaN	NaN
103	3	38	47	bathroom	sun_apynckhmoftszqoq.tif	1377217.814011	1377218.072603	1377218.887876	7.424312e-01	37	none	NaN	NaN
103	3	39	42	bathroom	sun_apeeialkgkuxddgh.tif	1377219.657504	1377219.916091	1377220.731322	7.674570e-01	32	37	1377222.191922	0
103	3	40	25	bathroom	sun_agyqfjcfkdcydepw.tif	1377222.969116	1377223.227705	1377224.043057	6.840378e-01	15	none	NaN	NaN
103	3	41	32	bathroom	sun_aleqenyvunhactkl.tif	1377224.812608	1377225.071198	1377225.886573	7.507732e-01	22	39	1377226.967841	1
103	3	42	12	bathroom	sun_aapitsgbtktqubfy.tif	1377227.740508	1377227.999097	1377228.814289	8.008247e-01	2	none	NaN	NaN
103	3	43	36	bathroom	sun_ambriybtogmepttm.tif	1377229.583995	1377229.842587	1377230.657857	7.007216e-01	26	none	NaN	NaN
103	3	44	44	bathroom	sun_apkruvsevgegsdwp.tif	1377231.427491	1377231.686082	1377232.501360	8.508762e-01	34	none	NaN	NaN
103	3	45	56	bathroom	sun_awnqiikzaispgmwo.tif	1377233.270982	1377233.529575	1377234.344825	6.756958e-01	46	none	NaN	NaN
103	3	46	15	bathroom	sun_abjtwfukuwddzted.tif	1377235.114478	1377235.373066	1377236.188247	8.425343e-01	5	none	NaN	NaN
103	3	47	16	bathroom	sun_acduarbnmmoglmiv.tif	1377236.957972	1377237.216557	1377238.031944	6.923797e-01	6	none	NaN	NaN
103	3	48	43	bathroom	sun_apjevzvycyhuqghb.tif	1377238.801459	1377239.060050	1377239.875421	7.757989e-01	33	none	NaN	NaN
103	3	49	40	bathroom	sun_aofnryafpsjimzsb.tif	1377240.644952	1377240.903544	1377241.718929	6.673539e-01	30	none	NaN	NaN
103	3	50	41	bathroom	sun_aoybiabnpadelefl.tif	1377242.488446	1377242.747034	1377243.562232	6.673539e-01	31	none	NaN	NaN
103	3	51	27	bathroom	sun_ahcvzmoyaycdoftf.tif	1377244.331940	1377244.590527	1377245.405719	8.341924e-01	17	37	1377246.144228	1
103	3	52	36	bathroom	sun_ambriybtogmepttm.tif	1377246.917837	1377247.176418	1377247.991689	8.341924e-01	26	none	NaN	NaN
103	3	53	37	bathroom	sun_amzlamotzwfkwjco.tif	1377248.761323	1377249.019909	1377249.835103	8.091666e-01	27	none	NaN	NaN
103	3	54	14	bathroom	sun_abapwbhyhkfixyex.tif	1377250.604816	1377250.863410	1377251.678738	8.008247e-01	4	none	NaN	NaN
103	3	55	40	bathroom	sun_aofnryafpsjimzsb.tif	1377252.448312	1377252.706902	1377253.522243	7.174055e-01	30	none	NaN	NaN
103	3	56	41	bathroom	sun_aoybiabnpadelefl.tif	1377254.291801	1377254.550394	1377255.365604	6.590120e-01	31	none	NaN	NaN
103	3	57	39	bathroom	sun_anryaplzeujmzfkd.tif	1377256.135294	1377256.393886	1377257.209204	6.840378e-01	29	none	NaN	NaN
103	3	58	43	bathroom	sun_apjevzvycyhuqghb.tif	1377257.978787	1377258.237381	1377259.052643	6.923797e-01	33	none	NaN	NaN
103	3	59	60	bathroom	sun_azqyogdvyhahyram.tif	1377259.822280	1377260.080866	1377260.896182	7.007216e-01	50	37	1377261.823923	0
103	3	60	38	bathroom	sun_anhioqovhscjqqwb.tif	1377262.600029	1377262.858615	1377263.673815	7.257474e-01	28	none	NaN	NaN
103	3	61	12	bathroom	sun_aapitsgbtktqubfy.tif	1377264.443523	1377264.702115	1377265.517487	7.424312e-01	2	none	NaN	NaN
103	3	62	11	bathroom	labelme_sfxiulhjbhlyiyt.tif	1377266.287015	1377266.545605	1377267.361043	7.757989e-01	1	none	NaN	NaN
103	3	63	30	bathroom	sun_ajlawzvmubibwbpy.tif	1377268.130499	1377268.389098	1377269.204296	8.175086e-01	20	none	NaN	NaN
103	3	64	28	bathroom	sun_ahijqszoswveeyji.tif	1377269.973997	1377270.232586	1377271.047943	6.506701e-01	18	none	NaN	NaN
103	3	65	48	bathroom	sun_aqrpegblszgcoujh.tif	1377271.817489	1377272.076079	1377272.891445	7.507732e-01	38	none	NaN	NaN
103	3	66	25	bathroom	sun_agyqfjcfkdcydepw.tif	1377273.660981	1377273.919600	1377274.734908	7.424312e-01	15	none	NaN	NaN
103	3	67	23	bathroom	sun_aghyqhbptboemmoq.tif	1377275.504477	1377275.763067	1377276.578610	6.923797e-01	13	none	NaN	NaN
103	3	68	16	bathroom	sun_acduarbnmmoglmiv.tif	1377277.347972	1377277.606560	1377278.421877	7.340893e-01	6	none	NaN	NaN
103	3	69	58	bathroom	sun_axxbkopsgyouuebh.tif	1377279.191460	1377279.450050	1377280.265320	8.258505e-01	48	none	NaN	NaN
103	3	70	21	bathroom	sun_aggnnqpdorgxpvce.tif	1377281.034951	1377281.293539	1377282.108933	8.175086e-01	11	none	NaN	NaN
103	3	71	26	bathroom	sun_ahaulkltgpkeeemi.tif	1377282.878443	1377283.137031	1377283.952287	8.091666e-01	16	none	NaN	NaN
103	3	72	34	bathroom	sun_alkosphxlxwjwgjd.tif	1377284.721939	1377284.980524	1377285.795754	6.506701e-01	24	none	NaN	NaN
103	3	73	52	bathroom	sun_aunuadmjocsddsrl.tif	1377286.565429	1377286.824019	1377287.639306	6.673539e-01	42	none	NaN	NaN
103	3	74	15	bathroom	sun_abjtwfukuwddzted.tif	1377288.408922	1377288.667509	1377289.482864	7.591151e-01	5	none	NaN	NaN
103	3	75	13	bathroom	sun_aavhrsfjbserjtht.tif	1377290.252417	1377290.511004	1377291.326345	7.674570e-01	3	none	NaN	NaN
103	3	76	46	bathroom	sun_apmqjbnwghzuhhzh.tif	1377292.095906	1377292.354499	1377293.169794	8.425343e-01	36	none	NaN	NaN
103	3	77	59	bathroom	sun_axyrejkiiaqiurjk.tif	1377293.939400	1377294.197984	1377295.013218	7.924828e-01	49	none	NaN	NaN
103	3	78	42	bathroom	sun_apeeialkgkuxddgh.tif	1377295.782890	1377296.041480	1377296.856801	7.841409e-01	32	none	NaN	NaN
103	3	79	24	bathroom	sun_agrwbmhcpmfuwmsg.tif	1377297.626384	1377297.884969	1377298.700250	8.008247e-01	14	none	NaN	NaN
103	3	80	35	bathroom	sun_alotolagknyrgtsk.tif	1377299.469874	1377299.728464	1377300.543766	7.174055e-01	25	37	1377301.591880	1
103	3	81	57	bathroom	sun_axldvoqbuvuggfmq.tif	1377302.364405	1377302.622999	1377303.438269	8.258505e-01	47	none	NaN	NaN
103	3	82	32	bathroom	sun_aleqenyvunhactkl.tif	1377304.207903	1377304.466491	1377305.281793	7.424312e-01	22	none	NaN	NaN
103	3	83	55	bathroom	sun_avhrdrntsqrjzccq.tif	1377306.051396	1377306.309984	1377307.125362	7.924828e-01	45	37	1377308.032054	1
103	3	84	22	bathroom	sun_agguqiubmwhqqunb.tif	1377308.804117	1377309.062712	1377309.878055	6.590120e-01	12	none	NaN	NaN
103	3	85	45	bathroom	sun_apkxzenqapsujocq.tif	1377310.647609	1377310.906202	1377311.721446	7.340893e-01	35	none	NaN	NaN
103	3	86	20	bathroom	sun_afcoljnjfoxjtgja.tif	1377312.491101	1377312.749688	1377313.564876	7.841409e-01	10	37	1377314.303932	1
103	3	87	19	bathroom	sun_aclfzgynxzxlbepz.tif	1377315.077000	1377315.335587	1377316.150875	7.591151e-01	9	none	NaN	NaN
103	3	88	31	bathroom	sun_akiytfaagpdsphgz.tif	1377316.920487	1377317.179080	1377317.994466	7.591151e-01	21	none	NaN	NaN
103	3	89	47	bathroom	sun_apynckhmoftszqoq.tif	1377318.763981	1377319.022571	1377319.837761	8.508762e-01	37	none	NaN	NaN
103	3	90	17	bathroom	sun_acegryoqftbzowsg.tif	1377320.607474	1377320.866070	1377321.681363	6.840378e-01	7	none	NaN	NaN
103	3	91	33	bathroom	sun_aljolscmmzydegqp.tif	1377322.450963	1377322.709558	1377323.524836	7.257474e-01	23	none	NaN	NaN
103	3	92	51	bathroom	sun_atstyziqcmkahyxk.tif	1377324.294459	1377324.553047	1377325.368335	6.673539e-01	41	37	1377326.039916	1
103	3	93	54	bathroom	sun_auzqhkafidnkrwmo.tif	1377326.813616	1377327.072215	1377327.887594	8.175086e-01	44	none	NaN	NaN
103	3	94	18	bathroom	sun_acgyywnybuveqsro.tif	1377328.657110	1377328.915699	1377329.731071	7.007216e-01	8	none	NaN	NaN
103	3	95	50	bathroom	sun_aspsyogrekjtfozg.tif	1377330.500605	1377330.759196	1377331.574477	7.090635e-01	40	none	NaN	NaN
103	3	96	53	bathroom	sun_ausgutylgojavyoq.tif	1377332.344098	1377332.602687	1377333.417928	7.757989e-01	43	none	NaN	NaN
103	3	97	56	bathroom	sun_awnqiikzaispgmwo.tif	1377334.187588	1377334.446181	1377335.261519	8.091666e-01	46	37	1377335.895682	1
103	3	98	49	bathroom	sun_asfwthctfqerjvxr.tif	1377336.673388	1377336.931975	1377337.747242	7.591151e-01	39	none	NaN	NaN
103	3	99	44	bathroom	sun_apkruvsevgegsdwp.tif	1377338.516877	1377338.775466	1377339.590829	6.590120e-01	34	none	NaN	NaN
103	3	100	29	bathroom	sun_ahqjwnzgolcaoidx.tif	1377340.360372	1377340.618954	1377341.434148	8.341924e-01	19	none	NaN	NaN
103	4	1	68	kitchen	sun_aaxxjlsuzvqlgylf.tif	1377381.033982	1377381.292572	1377381.991005	7.257474e-01	58	none	NaN	NaN
103	4	2	77	kitchen	sun_acxkpeoqbwcxfvip.tif	1377382.760692	1377383.019280	1377383.717686	7.007216e-01	67	none	NaN	NaN
103	4	3	79	kitchen	sun_admlmbcdswaszruo.tif	1377384.487403	1377384.745990	1377385.444496	8.175086e-01	69	none	NaN	NaN
103	4	4	86	kitchen	sun_aggjlwcdjsjcaemh.tif	1377386.214106	1377386.472703	1377387.171219	7.090635e-01	76	none	NaN	NaN
103	4	5	94	kitchen	sun_ahywdevtimnqcsln.tif	1377387.940823	1377388.199412	1377388.897815	7.007216e-01	84	none	NaN	NaN
103	4	6	95	kitchen	sun_aixorpehvfykdynp.tif	1377389.667530	1377389.926118	1377390.624608	6.756958e-01	85	none	NaN	NaN
103	4	7	75	kitchen	sun_acgtpgfybqjmzeyw.tif	1377391.394240	1377391.652832	1377392.351245	7.507732e-01	65	none	NaN	NaN
103	4	8	88	kitchen	sun_agubuxuukhzyzpdp.tif	1377393.120952	1377393.379534	1377394.078088	6.590120e-01	78	none	NaN	NaN
103	4	9	85	kitchen	sun_afuyedyxivkhecmu.tif	1377394.847660	1377395.106250	1377395.804654	7.841409e-01	75	37	1377396.824085	1
103	4	10	104	kitchen	sun_auticobqsbwgoppi.tif	1377397.600383	1377397.858979	1377398.557470	7.591151e-01	94	37	1377399.535962	0
103	4	11	72	kitchen	sun_abpwyqmlzafvklqo.tif	1377400.311404	1377400.569994	1377401.268501	7.924828e-01	62	none	NaN	NaN
103	4	12	66	kitchen	sun_aapllqyqlykszopd.tif	1377402.038114	1377402.296702	1377402.995256	7.257474e-01	56	none	NaN	NaN
103	4	13	69	kitchen	sun_abdenxonkemggwsq.tif	1377403.764825	1377404.023413	1377404.721832	8.091666e-01	59	37	1377405.376038	0
103	4	14	108	kitchen	sun_aymvwlarqodbwuoc.tif	1377406.150542	1377406.409113	1377407.107564	6.756958e-01	98	none	NaN	NaN
103	4	15	105	kitchen	sun_avszsnwsbuqfgzbn.tif	1377407.877232	1377408.135818	1377408.834392	7.507732e-01	95	none	NaN	NaN
103	4	16	78	kitchen	sun_adgqasybjyktddhj.tif	1377409.603940	1377409.862528	1377410.561000	8.008247e-01	68	none	NaN	NaN
103	4	17	101	kitchen	sun_aqeaevwwwjoqhzvl.tif	1377411.330651	1377411.589244	1377412.287738	8.508762e-01	91	37	1377413.008033	0
103	4	18	99	kitchen	sun_akcjzhbbjlbogpdi.tif	1377413.783075	1377414.041667	1377414.740187	6.840378e-01	89	none	NaN	NaN
103	4	19	90	kitchen	sun_ahdycvpopffkzzsu.tif	1377415.509789	1377415.768375	1377416.466939	7.424312e-01	80	none	NaN	NaN
103	4	20	70	kitchen	sun_abdxkyyxwfskuaqb.tif	1377417.236499	1377417.495085	1377418.193597	8.341924e-01	60	none	NaN	NaN
103	4	21	81	kitchen	sun_aehawpgmrlhlvcow.tif	1377418.963206	1377419.221799	1377419.920283	8.008247e-01	71	37	1377420.703682	0
103	4	22	106	kitchen	sun_awcpdzzznmweyyhv.tif	1377421.482367	1377421.740958	1377422.439432	8.091666e-01	96	none	NaN	NaN
103	4	23	93	kitchen	sun_ahspylgoovwmwvgk.tif	1377423.209080	1377423.467666	1377424.166177	6.506701e-01	83	none	NaN	NaN
103	4	24	97	kitchen	sun_ajkqhtgcbgpcwrwn.tif	1377424.935791	1377425.194381	1377425.892801	7.174055e-01	87	none	NaN	NaN
103	4	25	91	kitchen	sun_ahljzhgcdpomplvg.tif	1377426.662502	1377426.921089	1377427.619670	7.257474e-01	81	none	NaN	NaN
103	4	26	96	kitchen	sun_ajcbwwvdlsvjyzje.tif	1377428.389207	1377428.647798	1377429.346394	8.091666e-01	86	none	NaN	NaN
103	4	27	62	kitchen	labelme_kxvouciolcpqplr.tif	1377430.115920	1377430.374504	1377431.072968	7.757989e-01	52	none	NaN	NaN
103	4	28	109	kitchen	sun_aypmqwcualkenuoe.tif	1377431.842630	1377432.101223	1377432.799747	7.757989e-01	99	37	1377433.775875	1
103	4	29	76	kitchen	sun_acwjdupvyjsugpay.tif	1377434.553644	1377434.812239	1377435.510761	8.091666e-01	66	none	NaN	NaN
103	4	30	87	kitchen	sun_agorklincwxrdtga.tif	1377436.280357	1377436.538947	1377437.237375	8.425343e-01	77	none	NaN	NaN
103	4	31	102	kitchen	sun_auaiucuqpdausiva.tif	1377438.007065	1377438.265677	1377438.964199	8.341924e-01	92	none	NaN	NaN
103	4	32	110	kitchen	sun_azmutvzbxypaceni.tif	1377439.733776	1377439.992369	1377440.690845	7.674570e-01	100	37	1377441.631938	0
103	4	33	98	kitchen	sun_akchetnepxlcxhsu.tif	1377442.403083	1377442.661670	1377443.360102	6.673539e-01	88	none	NaN	NaN
103	4	34	100	kitchen	sun_amjjdeyrggfqgmom.tif	1377444.129795	1377444.388410	1377445.086868	7.340893e-01	90	37	1377445.952043	1
103	4	35	107	kitchen	sun_axyyrmzcupyhlivc.tif	1377446.724031	1377446.982617	1377447.681110	7.674570e-01	97	none	NaN	NaN
103	4	36	65	kitchen	sun_aamedkxepzlwuxes.tif	1377448.450742	1377448.709334	1377449.407735	8.175086e-01	55	none	NaN	NaN
103	4	37	64	kitchen	sun_aadbddgrdsjugojn.tif	1377450.177454	1377450.436045	1377451.134547	7.340893e-01	54	37	1377451.735909	1
103	4	38	89	kitchen	sun_agzzivivdpnawacl.tif	1377452.513099	1377452.771685	1377453.470251	8.425343e-01	79	none	NaN	NaN
103	4	39	103	kitchen	sun_aunzlwrbjumxhwdj.tif	1377454.239812	1377454.498396	1377455.196923	6.840378e-01	93	none	NaN	NaN
103	4	40	71	kitchen	sun_abftihopvusyfakt.tif	1377455.966523	1377456.225113	1377456.923604	7.424312e-01	61	none	NaN	NaN
103	4	41	83	kitchen	sun_aeqdocilnnpuvuhx.tif	1377457.693233	1377457.951820	1377458.650347	6.506701e-01	73	none	NaN	NaN
103	4	42	73	kitchen	sun_abrcnpqqhmjwekyf.tif	1377459.419938	1377459.678528	1377460.377088	6.506701e-01	63	none	NaN	NaN
103	4	43	84	kitchen	sun_aexklacwqwezaorf.tif	1377461.146650	1377461.405241	1377462.103791	7.174055e-01	74	none	NaN	NaN
103	4	44	92	kitchen	sun_ahpczsiumwwocjkv.tif	1377462.873362	1377463.131947	1377463.830549	7.674570e-01	82	none	NaN	NaN
103	4	45	82	kitchen	sun_aenotlpyftoioydp.tif	1377464.600071	1377464.858656	1377465.557118	8.258505e-01	72	39	1377466.495923	1
103	4	46	80	kitchen	sun_aegoxogugdkwpmpj.tif	1377467.269377	1377467.527967	1377468.226378	6.923797e-01	70	none	NaN	NaN
103	4	47	61	kitchen	labelme_brsyyvweiuaazfr.tif	1377468.996089	1377469.254683	1377469.953220	7.090635e-01	51	none	NaN	NaN
103	4	48	63	kitchen	labelme_rykdqxenmhulbdn.tif	1377470.722797	1377470.981390	1377471.679995	8.175086e-01	53	37	1377473.063826	1
103	4	49	67	kitchen	sun_aarfiyshqohlwkmo.tif	1377473.834214	1377474.092805	1377474.791386	7.007216e-01	57	none	NaN	NaN
103	4	50	74	kitchen	sun_acfmftudsenhrfhy.tif	1377475.560923	1377475.819514	1377476.517968	7.424312e-01	64	none	NaN	NaN
103	4	51	91	kitchen	sun_ahljzhgcdpomplvg.tif	1377477.287634	1377477.546224	1377478.244682	7.924828e-01	81	none	NaN	NaN
103	4	52	85	kitchen	sun_afuyedyxivkhecmu.tif	1377479.014344	1377479.272934	1377479.971471	8.258505e-01	75	none	NaN	NaN
103	4	53	78	kitchen	sun_adgqasybjyktddhj.tif	1377480.741054	1377480.999645	1377481.698233	6.756958e-01	68	none	NaN	NaN
103	4	54	92	kitchen	sun_ahpczsiumwwocjkv.tif	1377482.467765	1377482.726354	1377483.425205	6.590120e-01	82	none	NaN	NaN
103	4	55	87	kitchen	sun_agorklincwxrdtga.tif	1377484.194471	1377484.453066	1377485.151496	8.258505e-01	77	none	NaN	NaN
103	4	56	102	kitchen	sun_auaiucuqpdausiva.tif	1377485.921179	1377486.179772	1377486.878280	7.257474e-01	92	none	NaN	NaN
103	4	57	66	kitchen	sun_aapllqyqlykszopd.tif	1377487.647891	1377487.906477	1377488.604954	8.008247e-01	56	39	1377489.496150	1
103	4	58	106	kitchen	sun_awcpdzzznmweyyhv.tif	1377490.267150	1377490.525741	1377491.224270	7.090635e-01	96	none	NaN	NaN
103	4	59	64	kitchen	sun_aadbddgrdsjugojn.tif	1377491.993865	1377492.252459	1377492.951058	7.090635e-01	54	none	NaN	NaN
103	4	60	80	kitchen	sun_aegoxogugdkwpmpj.tif	1377493.720574	1377493.979158	1377494.677618	6.673539e-01	70	none	NaN	NaN
103	4	61	73	kitchen	sun_abrcnpqqhmjwekyf.tif	1377495.447283	1377495.705877	1377496.404474	7.674570e-01	63	none	NaN	NaN
103	4	62	105	kitchen	sun_avszsnwsbuqfgzbn.tif	1377497.173996	1377497.432582	1377498.131097	7.424312e-01	95	none	NaN	NaN
103	4	63	62	kitchen	labelme_kxvouciolcpqplr.tif	1377498.900702	1377499.159294	1377499.857828	7.174055e-01	52	none	NaN	NaN
103	4	64	89	kitchen	sun_agzzivivdpnawacl.tif	1377500.627410	1377500.886002	1377501.584554	6.673539e-01	79	none	NaN	NaN
103	4	65	103	kitchen	sun_aunzlwrbjumxhwdj.tif	1377502.354122	1377502.612710	1377503.311115	8.258505e-01	93	39	1377504.599679	0
103	4	66	108	kitchen	sun_aymvwlarqodbwuoc.tif	1377505.373782	1377505.632368	1377506.330815	8.425343e-01	98	none	NaN	NaN
103	4	67	72	kitchen	sun_abpwyqmlzafvklqo.tif	1377507.100490	1377507.359080	1377508.057596	7.591151e-01	62	none	NaN	NaN
103	4	68	70	kitchen	sun_abdxkyyxwfskuaqb.tif	1377508.827195	1377509.085790	1377509.784342	6.923797e-01	60	none	NaN	NaN
103	4	69	68	kitchen	sun_aaxxjlsuzvqlgylf.tif	1377510.553913	1377510.812502	1377511.511034	6.756958e-01	58	37	1377512.207972	1
103	4	70	110	kitchen	sun_azmutvzbxypaceni.tif	1377512.981314	1377513.239902	1377513.938367	7.507732e-01	100	none	NaN	NaN
103	4	71	107	kitchen	sun_axyyrmzcupyhlivc.tif	1377514.708027	1377514.966619	1377515.665069	6.923797e-01	97	none	NaN	NaN
103	4	72	97	kitchen	sun_ajkqhtgcbgpcwrwn.tif	1377516.434735	1377516.693326	1377517.391904	7.340893e-01	87	none	NaN	NaN
103	4	73	65	kitchen	sun_aamedkxepzlwuxes.tif	1377518.161444	1377518.420037	1377519.118441	7.591151e-01	55	39	1377519.880008	1
103	4	74	99	kitchen	sun_akcjzhbbjlbogpdi.tif	1377520.655575	1377520.914171	1377521.612762	6.840378e-01	89	none	NaN	NaN
103	4	75	94	kitchen	sun_ahywdevtimnqcsln.tif	1377522.382287	1377522.640876	1377523.339283	7.841409e-01	84	none	NaN	NaN
103	4	76	83	kitchen	sun_aeqdocilnnpuvuhx.tif	1377524.109003	1377524.367595	1377525.066005	8.341924e-01	73	none	NaN	NaN
103	4	77	86	kitchen	sun_aggjlwcdjsjcaemh.tif	1377525.835714	1377526.094296	1377526.792841	6.673539e-01	76	none	NaN	NaN
103	4	78	95	kitchen	sun_aixorpehvfykdynp.tif	1377527.562419	1377527.821013	1377528.519514	7.591151e-01	85	none	NaN	NaN
103	4	79	74	kitchen	sun_acfmftudsenhrfhy.tif	1377529.289134	1377529.547717	1377530.246271	7.591151e-01	64	none	NaN	NaN
103	4	80	77	kitchen	sun_acxkpeoqbwcxfvip.tif	1377531.015843	1377531.274433	1377531.972918	7.757989e-01	67	none	NaN	NaN
103	4	81	79	kitchen	sun_admlmbcdswaszruo.tif	1377532.742551	1377533.001136	1377533.699646	7.924828e-01	69	none	NaN	NaN
103	4	82	84	kitchen	sun_aexklacwqwezaorf.tif	1377534.469260	1377534.727851	1377535.426426	8.508762e-01	74	none	NaN	NaN
103	4	83	88	kitchen	sun_agubuxuukhzyzpdp.tif	1377536.195974	1377536.454562	1377537.153168	7.924828e-01	78	none	NaN	NaN
103	4	84	109	kitchen	sun_aypmqwcualkenuoe.tif	1377537.922678	1377538.181266	1377538.879881	8.425343e-01	99	none	NaN	NaN
103	4	85	63	kitchen	labelme_rykdqxenmhulbdn.tif	1377539.649388	1377539.907982	1377540.606413	6.590120e-01	53	none	NaN	NaN
103	4	86	101	kitchen	sun_aqeaevwwwjoqhzvl.tif	1377541.376098	1377541.634688	1377542.333225	8.341924e-01	91	none	NaN	NaN
103	4	87	93	kitchen	sun_ahspylgoovwmwvgk.tif	1377543.102813	1377543.361401	1377544.059908	7.841409e-01	83	none	NaN	NaN
103	4	88	81	kitchen	sun_aehawpgmrlhlvcow.tif	1377544.829516	1377545.088113	1377545.786523	7.340893e-01	71	none	NaN	NaN
103	4	89	90	kitchen	sun_ahdycvpopffkzzsu.tif	1377546.556228	1377546.814817	1377547.513406	8.258505e-01	80	none	NaN	NaN
103	4	90	98	kitchen	sun_akchetnepxlcxhsu.tif	1377548.282939	1377548.541526	1377549.240107	7.757989e-01	88	none	NaN	NaN
103	4	91	69	kitchen	sun_abdenxonkemggwsq.tif	1377550.009648	1377550.268244	1377550.966823	6.923797e-01	59	none	NaN	NaN
103	4	92	96	kitchen	sun_ajcbwwvdlsvjyzje.tif	1377551.736360	1377551.994951	1377552.693463	6.840378e-01	86	none	NaN	NaN
103	4	93	75	kitchen	sun_acgtpgfybqjmzeyw.tif	1377553.463072	1377553.721659	1377554.420268	8.175086e-01	65	none	NaN	NaN
103	4	94	76	kitchen	sun_acwjdupvyjsugpay.tif	1377555.189778	1377555.448368	1377556.146825	7.174055e-01	66	none	NaN	NaN
103	4	95	104	kitchen	sun_auticobqsbwgoppi.tif	1377556.916493	1377557.175076	1377557.873652	8.008247e-01	94	none	NaN	NaN
103	4	96	82	kitchen	sun_aenotlpyftoioydp.tif	1377558.643198	1377558.901792	1377559.600240	7.841409e-01	72	none	NaN	NaN
103	4	97	61	kitchen	labelme_brsyyvweiuaazfr.tif	1377560.369911	1377560.628503	1377561.327060	7.007216e-01	51	none	NaN	NaN
103	4	98	71	kitchen	sun_abftihopvusyfakt.tif	1377562.096622	1377562.355210	1377563.053827	6.590120e-01	61	none	NaN	NaN
103	4	99	67	kitchen	sun_aarfiyshqohlwkmo.tif	1377563.823329	1377564.081921	1377564.780508	6.923797e-01	57	none	NaN	NaN
103	4	100	100	kitchen	sun_amjjdeyrggfqgmom.tif	1377565.550042	1377565.808627	1377566.507206	7.507732e-01	90	none	NaN	NaN
103	5	1	47	bathroom	sun_apynckhmoftszqoq.tif	1377614.473490	1377614.732078	1377615.439023	7.591151e-01	37	none	NaN	NaN
103	5	2	55	bathroom	sun_avhrdrntsqrjzccq.tif	1377616.208538	1377616.467127	1377617.174064	6.506701e-01	45	37	1377618.343895	0
103	5	3	45	bathroom	sun_apkxzenqapsujocq.tif	1377619.119757	1377619.378341	1377620.085299	7.424312e-01	35	none	NaN	NaN
103	5	4	41	bathroom	sun_aoybiabnpadelefl.tif	1377620.854805	1377621.113395	1377621.820353	7.090635e-01	31	none	NaN	NaN
103	5	5	21	bathroom	sun_aggnnqpdorgxpvce.tif	1377622.589858	1377622.848444	1377623.555399	7.174055e-01	11	none	NaN	NaN
103	5	6	36	bathroom	sun_ambriybtogmepttm.tif	1377624.324913	1377624.583498	1377625.290358	8.508762e-01	26	none	NaN	NaN
103	5	7	24	bathroom	sun_agrwbmhcpmfuwmsg.tif	1377626.059958	1377626.318551	1377627.025496	6.756958e-01	14	none	NaN	NaN
103	5	8	37	bathroom	sun_amzlamotzwfkwjco.tif	1377627.795010	1377628.053609	1377628.760389	7.007216e-01	27	none	NaN	NaN
103	5	9	20	bathroom	sun_afcoljnjfoxjtgja.tif	1377629.530064	1377629.788654	1377630.495393	7.257474e-01	10	none	NaN	NaN
103	5	10	40	bathroom	sun_aofnryafpsjimzsb.tif	1377631.265116	1377631.523704	1377632.230635	7.507732e-01	30	none	NaN	NaN
103	5	11	42	bathroom	sun_apeeialkgkuxddgh.tif	1377633.000168	1377633.258759	1377633.965553	8.091666e-01	32	none	NaN	NaN
103	5	12	13	bathroom	sun_aavhrsfjbserjtht.tif	1377634.735220	1377634.993815	1377635.700591	8.175086e-01	3	none	NaN	NaN
103	5	13	11	bathroom	labelme_sfxiulhjbhlyiyt.tif	1377636.470271	1377636.728859	1377637.435754	7.257474e-01	1	none	NaN	NaN
103	5	14	34	bathroom	sun_alkosphxlxwjwgjd.tif	1377638.205327	1377638.463914	1377639.170650	6.590120e-01	24	37	1377640.167991	1
103	5	15	51	bathroom	sun_atstyziqcmkahyxk.tif	1377640.941367	1377641.199955	1377641.906750	7.257474e-01	41	39	1377643.039912	1
103	5	16	32	bathroom	sun_aleqenyvunhactkl.tif	1377643.810886	1377644.069464	1377644.776292	7.841409e-01	22	none	NaN	NaN
103	5	17	26	bathroom	sun_ahaulkltgpkeeemi.tif	1377645.545928	1377645.804515	1377646.511379	7.924828e-01	16	none	NaN	NaN
103	5	18	33	bathroom	sun_aljolscmmzydegqp.tif	1377647.280976	1377647.539573	1377648.246534	7.007216e-01	23	37	1377648.992037	1
103	5	19	28	bathroom	sun_ahijqszoswveeyji.tif	1377649.766771	1377650.025365	1377650.732141	7.007216e-01	18	none	NaN	NaN
103	5	20	19	bathroom	sun_aclfzgynxzxlbepz.tif	1377651.501824	1377651.760409	1377652.467285	7.591151e-01	9	none	NaN	NaN
103	5	21	35	bathroom	sun_alotolagknyrgtsk.tif	1377653.236871	1377653.495466	1377654.202345	7.174055e-01	25	none	NaN	NaN
103	5	22	58	bathroom	sun_axxbkopsgyouuebh.tif	1377654.971925	1377655.230518	1377655.937268	8.508762e-01	48	none	NaN	NaN
103	5	23	27	bathroom	sun_ahcvzmoyaycdoftf.tif	1377656.706980	1377656.965565	1377657.672349	7.174055e-01	17	none	NaN	NaN
103	5	24	23	bathroom	sun_aghyqhbptboemmoq.tif	1377658.442028	1377658.700626	1377659.407560	8.091666e-01	13	none	NaN	NaN
103	5	25	56	bathroom	sun_awnqiikzaispgmwo.tif	1377660.177082	1377660.435668	1377661.142518	8.175086e-01	46	none	NaN	NaN
103	5	26	15	bathroom	sun_abjtwfukuwddzted.tif	1377661.912131	1377662.170744	1377662.877508	7.424312e-01	5	none	NaN	NaN
103	5	27	48	bathroom	sun_aqrpegblszgcoujh.tif	1377663.647184	1377663.905775	1377664.612562	8.425343e-01	38	none	NaN	NaN
103	5	28	18	bathroom	sun_acgyywnybuveqsro.tif	1377665.382239	1377665.640828	1377666.347597	8.175086e-01	8	none	NaN	NaN
103	5	29	60	bathroom	sun_azqyogdvyhahyram.tif	1377667.117285	1377667.375878	1377668.082825	8.008247e-01	50	none	NaN	NaN
103	5	30	46	bathroom	sun_apmqjbnwghzuhhzh.tif	1377668.852338	1377669.110924	1377669.817715	6.756958e-01	36	none	NaN	NaN
103	5	31	30	bathroom	sun_ajlawzvmubibwbpy.tif	1377670.587392	1377670.845979	1377671.552852	6.590120e-01	20	none	NaN	NaN
103	5	32	31	bathroom	sun_akiytfaagpdsphgz.tif	1377672.322438	1377672.581031	1377673.287935	8.425343e-01	21	none	NaN	NaN
103	5	33	16	bathroom	sun_acduarbnmmoglmiv.tif	1377674.057488	1377674.316087	1377675.022939	6.673539e-01	6	none	NaN	NaN
103	5	34	29	bathroom	sun_ahqjwnzgolcaoidx.tif	1377675.792543	1377676.051133	1377676.757924	7.090635e-01	19	37	1377677.592132	0
103	5	35	49	bathroom	sun_asfwthctfqerjvxr.tif	1377678.370095	1377678.628688	1377679.335520	7.674570e-01	39	none	NaN	NaN
103	5	36	43	bathroom	sun_apjevzvycyhuqghb.tif	1377680.105148	1377680.363733	1377681.070556	8.008247e-01	33	none	NaN	NaN
103	5	37	22	bathroom	sun_agguqiubmwhqqunb.tif	1377681.840198	1377682.098792	1377682.805712	7.007216e-01	12	none	NaN	NaN
103	5	38	17	bathroom	sun_acegryoqftbzowsg.tif	1377683.575253	1377683.833844	1377684.540591	6.673539e-01	7	none	NaN	NaN
103	5	39	44	bathroom	sun_apkruvsevgegsdwp.tif	1377685.310305	1377685.568892	1377686.275722	7.757989e-01	34	37	1377687.135946	0
103	5	40	52	bathroom	sun_aunuadmjocsddsrl.tif	1377687.912878	1377688.171471	1377688.878261	8.008247e-01	42	none	NaN	NaN
103	5	41	59	bathroom	sun_axyrejkiiaqiurjk.tif	1377689.647929	1377689.906525	1377690.613350	8.008247e-01	49	none	NaN	NaN
103	5	42	53	bathroom	sun_ausgutylgojavyoq.tif	1377691.382983	1377691.641576	1377692.348443	7.090635e-01	43	none	NaN	NaN
103	5	43	12	bathroom	sun_aapitsgbtktqubfy.tif	1377693.118032	1377693.376626	1377694.083415	6.590120e-01	2	none	NaN	NaN
103	5	44	25	bathroom	sun_agyqfjcfkdcydepw.tif	1377694.853088	1377695.111678	1377695.818493	7.674570e-01	15	none	NaN	NaN
103	5	45	14	bathroom	sun_abapwbhyhkfixyex.tif	1377696.588137	1377696.846731	1377697.553641	7.591151e-01	4	none	NaN	NaN
103	5	46	54	bathroom	sun_auzqhkafidnkrwmo.tif	1377698.323189	1377698.581780	1377699.288615	8.091666e-01	44	none	NaN	NaN
103	5	47	39	bathroom	sun_anryaplzeujmzfkd.tif	1377700.058243	1377700.316823	1377701.023622	7.841409e-01	29	none	NaN	NaN
103	5	48	38	bathroom	sun_anhioqovhscjqqwb.tif	1377701.793284	1377702.051881	1377702.758829	6.756958e-01	28	none	NaN	NaN
103	5	49	57	bathroom	sun_axldvoqbuvuggfmq.tif	1377703.528348	1377703.786936	1377704.493764	7.757989e-01	47	none	NaN	NaN
103	5	50	50	bathroom	sun_aspsyogrekjtfozg.tif	1377705.263397	1377705.521983	1377706.228909	8.091666e-01	40	none	NaN	NaN
103	5	51	50	bathroom	sun_aspsyogrekjtfozg.tif	1377706.998448	1377707.257041	1377707.963868	7.674570e-01	40	none	NaN	NaN
103	5	52	58	bathroom	sun_axxbkopsgyouuebh.tif	1377708.733500	1377708.992091	1377709.698904	8.258505e-01	48	none	NaN	NaN
103	5	53	13	bathroom	sun_aavhrsfjbserjtht.tif	1377710.468548	1377710.727140	1377711.433917	8.258505e-01	3	none	NaN	NaN
103	5	54	28	bathroom	sun_ahijqszoswveeyji.tif	1377712.203604	1377712.462193	1377713.169116	7.424312e-01	18	none	NaN	NaN
103	5	55	31	bathroom	sun_akiytfaagpdsphgz.tif	1377713.938653	1377714.197246	1377714.904183	7.591151e-01	21	none	NaN	NaN
103	5	56	14	bathroom	sun_abapwbhyhkfixyex.tif	1377715.673707	1377715.932293	1377716.639053	8.341924e-01	4	none	NaN	NaN
103	5	57	26	bathroom	sun_ahaulkltgpkeeemi.tif	1377717.408757	1377717.667346	1377718.374087	7.340893e-01	16	none	NaN	NaN
103	5	58	45	bathroom	sun_apkxzenqapsujocq.tif	1377719.143810	1377719.402399	1377720.109301	8.258505e-01	35	none	NaN	NaN
103	5	59	52	bathroom	sun_aunuadmjocsddsrl.tif	1377720.878858	1377721.137450	1377721.844306	7.841409e-01	42	none	NaN	NaN
103	5	60	15	bathroom	sun_abjtwfukuwddzted.tif	1377722.613914	1377722.872504	1377723.579367	8.425343e-01	5	none	NaN	NaN
103	5	61	42	bathroom	sun_apeeialkgkuxddgh.tif	1377724.348966	1377724.607562	1377725.314496	8.341924e-01	32	none	NaN	NaN
103	5	62	32	bathroom	sun_aleqenyvunhactkl.tif	1377726.084017	1377726.342606	1377727.049368	8.341924e-01	22	none	NaN	NaN
103	5	63	34	bathroom	sun_alkosphxlxwjwgjd.tif	1377727.810726	1377728.069317	1377728.776177	7.757989e-01	24	none	NaN	NaN
103	5	64	16	bathroom	sun_acduarbnmmoglmiv.tif	1377729.545780	1377729.804369	1377730.511315	8.258505e-01	6	none	NaN	NaN
103	5	65	44	bathroom	sun_apkruvsevgegsdwp.tif	1377731.280825	1377731.539419	1377732.246199	7.591151e-01	34	none	NaN	NaN
103	5	66	36	bathroom	sun_ambriybtogmepttm.tif	1377733.015883	1377733.274476	1377733.981359	7.507732e-01	26	none	NaN	NaN
103	5	67	27	bathroom	sun_ahcvzmoyaycdoftf.tif	1377734.750929	1377735.009520	1377735.716262	6.840378e-01	17	none	NaN	NaN
103	5	68	33	bathroom	sun_aljolscmmzydegqp.tif	1377736.485981	1377736.744575	1377737.451438	8.175086e-01	23	37	1377738.248081	0
103	5	69	49	bathroom	sun_asfwthctfqerjvxr.tif	1377739.021826	1377739.280422	1377739.987180	6.923797e-01	39	none	NaN	NaN
103	5	70	46	bathroom	sun_apmqjbnwghzuhhzh.tif	1377740.756878	1377741.015464	1377741.722261	6.590120e-01	36	39	1377742.415990	1
103	5	71	60	bathroom	sun_azqyogdvyhahyram.tif	1377743.192621	1377743.451208	1377744.158058	6.923797e-01	50	37	1377745.327995	1
103	5	72	56	bathroom	sun_awnqiikzaispgmwo.tif	1377746.103838	1377746.362429	1377747.069369	8.341924e-01	46	none	NaN	NaN
103	5	73	53	bathroom	sun_ausgutylgojavyoq.tif	1377747.838894	1377748.097483	1377748.804423	7.924828e-01	43	none	NaN	NaN
103	5	74	12	bathroom	sun_aapitsgbtktqubfy.tif	1377749.573939	1377749.832535	1377750.539472	7.924828e-01	2	none	NaN	NaN
103	5	75	38	bathroom	sun_anhioqovhscjqqwb.tif	1377751.308992	1377751.567583	1377752.274517	6.923797e-01	28	none	NaN	NaN
103	5	76	47	bathroom	sun_apynckhmoftszqoq.tif	1377753.044049	1377753.302633	1377754.009556	6.923797e-01	37	none	NaN	NaN
103	5	77	55	bathroom	sun_avhrdrntsqrjzccq.tif	1377754.779098	1377755.037686	1377755.744587	6.840378e-01	45	none	NaN	NaN
103	5	78	29	bathroom	sun_ahqjwnzgolcaoidx.tif	1377756.514151	1377756.772740	1377757.479570	8.425343e-01	19	none	NaN	NaN
103	5	79	20	bathroom	sun_afcoljnjfoxjtgja.tif	1377758.249201	1377758.507789	1377759.214650	7.841409e-01	10	37	1377759.920140	1
103	5	80	59	bathroom	sun_axyrejkiiaqiurjk.tif	1377760.693285	1377760.951879	1377761.658821	6.506701e-01	49	none	NaN	NaN
103	5	81	39	bathroom	sun_anryaplzeujmzfkd.tif	1377762.428337	1377762.686930	1377763.393832	7.257474e-01	29	none	NaN	NaN
103	5	82	18	bathroom	sun_acgyywnybuveqsro.tif	1377764.163390	1377764.421980	1377765.128756	7.340893e-01	8	none	NaN	NaN
103	5	83	21	bathroom	sun_aggnnqpdorgxpvce.tif	1377765.898444	1377766.157034	1377766.863814	7.090635e-01	11	none	NaN	NaN
103	5	84	37	bathroom	sun_amzlamotzwfkwjco.tif	1377767.633495	1377767.892083	1377768.598956	7.174055e-01	27	39	1377769.543726	1
103	5	85	11	bathroom	labelme_sfxiulhjbhlyiyt.tif	1377770.319486	1377770.578079	1377771.284976	7.340893e-01	1	37	1377772.096017	1
103	5	86	35	bathroom	sun_alotolagknyrgtsk.tif	1377772.872013	1377773.130605	1377773.837536	7.507732e-01	25	37	1377774.728196	1
103	5	87	30	bathroom	sun_ajlawzvmubibwbpy.tif	1377775.499616	1377775.758209	1377776.465131	7.674570e-01	20	none	NaN	NaN
103	5	88	57	bathroom	sun_axldvoqbuvuggfmq.tif	1377777.234667	1377777.493260	1377778.200023	6.840378e-01	47	none	NaN	NaN
103	5	89	22	bathroom	sun_agguqiubmwhqqunb.tif	1377778.969718	1377779.228309	1377779.935144	6.756958e-01	12	none	NaN	NaN
103	5	90	19	bathroom	sun_aclfzgynxzxlbepz.tif	1377780.704773	1377780.963362	1377781.670132	7.340893e-01	9	none	NaN	NaN
103	5	91	25	bathroom	sun_agyqfjcfkdcydepw.tif	1377782.439824	1377782.698410	1377783.405305	6.673539e-01	15	37	1377784.136003	1
103	5	92	43	bathroom	sun_apjevzvycyhuqghb.tif	1377784.908933	1377785.167523	1377785.874323	6.673539e-01	33	none	NaN	NaN
103	5	93	54	bathroom	sun_auzqhkafidnkrwmo.tif	1377786.643986	1377786.902576	1377787.609448	7.757989e-01	44	none	NaN	NaN
103	5	94	51	bathroom	sun_atstyziqcmkahyxk.tif	1377788.379039	1377788.637625	1377789.344453	7.424312e-01	41	none	NaN	NaN
103	5	95	24	bathroom	sun_agrwbmhcpmfuwmsg.tif	1377790.114088	1377790.372676	1377791.079525	6.840378e-01	14	none	NaN	NaN
103	5	96	23	bathroom	sun_aghyqhbptboemmoq.tif	1377791.849146	1377792.107731	1377792.814688	6.923797e-01	13	37	1377793.975938	0
103	5	97	40	bathroom	sun_aofnryafpsjimzsb.tif	1377794.752015	1377795.010602	1377795.717554	6.506701e-01	30	none	NaN	NaN
103	5	98	41	bathroom	sun_aoybiabnpadelefl.tif	1377796.487068	1377796.745660	1377797.452581	7.507732e-01	31	none	NaN	NaN
103	5	99	48	bathroom	sun_aqrpegblszgcoujh.tif	1377798.222118	1377798.480714	1377799.187486	7.924828e-01	38	none	NaN	NaN
103	5	100	17	bathroom	sun_acegryoqftbzowsg.tif	1377799.957173	1377800.215761	1377800.922676	8.258505e-01	7	none	NaN	NaN
103	6	1	64	kitchen	sun_aadbddgrdsjugojn.tif	1377880.495262	1377880.753852	1377881.494120	8.425343e-01	54	none	NaN	NaN
103	6	2	81	kitchen	sun_aehawpgmrlhlvcow.tif	1377882.263676	1377882.522271	1377883.262502	7.090635e-01	71	none	NaN	NaN
103	6	3	108	kitchen	sun_aymvwlarqodbwuoc.tif	1377884.032098	1377884.290686	1377885.030885	6.840378e-01	98	none	NaN	NaN
103	6	4	65	kitchen	sun_aamedkxepzlwuxes.tif	1377885.800511	1377886.059063	1377886.799258	8.258505e-01	55	none	NaN	NaN
103	6	5	87	kitchen	sun_agorklincwxrdtga.tif	1377887.568930	1377887.827520	1377888.567657	8.175086e-01	77	none	NaN	NaN
103	6	6	90	kitchen	sun_ahdycvpopffkzzsu.tif	1377889.337348	1377889.595939	1377890.336157	7.507732e-01	80	none	NaN	NaN
103	6	7	99	kitchen	sun_akcjzhbbjlbogpdi.tif	1377891.105773	1377891.364358	1377892.104503	7.674570e-01	89	37	1377892.991910	0
103	6	8	93	kitchen	sun_ahspylgoovwmwvgk.tif	1377893.766733	1377894.025326	1377894.765501	7.007216e-01	83	none	NaN	NaN
103	6	9	62	kitchen	labelme_kxvouciolcpqplr.tif	1377895.535154	1377895.793741	1377896.533998	6.673539e-01	52	none	NaN	NaN
103	6	10	69	kitchen	sun_abdenxonkemggwsq.tif	1377897.303571	1377897.562160	1377898.302610	6.840378e-01	59	none	NaN	NaN
103	6	11	98	kitchen	sun_akchetnepxlcxhsu.tif	1377899.071989	1377899.330581	1377900.070880	7.841409e-01	88	none	NaN	NaN
103	6	12	106	kitchen	sun_awcpdzzznmweyyhv.tif	1377900.840412	1377901.098999	1377901.839212	7.924828e-01	96	none	NaN	NaN
103	6	13	109	kitchen	sun_aypmqwcualkenuoe.tif	1377902.608823	1377902.867416	1377903.607724	6.923797e-01	99	none	NaN	NaN
103	6	14	100	kitchen	sun_amjjdeyrggfqgmom.tif	1377904.377243	1377904.635837	1377905.375975	7.174055e-01	90	none	NaN	NaN
103	6	15	89	kitchen	sun_agzzivivdpnawacl.tif	1377906.137318	1377906.395910	1377907.136224	8.258505e-01	79	none	NaN	NaN
103	6	16	103	kitchen	sun_aunzlwrbjumxhwdj.tif	1377907.905735	1377908.164332	1377908.904643	6.923797e-01	93	none	NaN	NaN
103	6	17	78	kitchen	sun_adgqasybjyktddhj.tif	1377909.674158	1377909.932741	1377910.672863	8.341924e-01	68	none	NaN	NaN
103	6	18	68	kitchen	sun_aaxxjlsuzvqlgylf.tif	1377911.442575	1377911.701162	1377912.441368	8.258505e-01	58	none	NaN	NaN
103	6	19	71	kitchen	sun_abftihopvusyfakt.tif	1377913.210992	1377913.469579	1377914.209903	7.090635e-01	61	none	NaN	NaN
103	6	20	105	kitchen	sun_avszsnwsbuqfgzbn.tif	1377914.979410	1377915.238000	1377915.978149	6.506701e-01	95	37	1377916.728183	0
103	6	21	73	kitchen	sun_abrcnpqqhmjwekyf.tif	1377917.498570	1377917.757158	1377918.497384	7.591151e-01	63	none	NaN	NaN
103	6	22	67	kitchen	sun_aarfiyshqohlwkmo.tif	1377919.266991	1377919.525577	1377920.265822	7.757989e-01	57	none	NaN	NaN
103	6	23	86	kitchen	sun_aggjlwcdjsjcaemh.tif	1377921.035410	1377921.293989	1377922.034241	8.008247e-01	76	none	NaN	NaN
103	6	24	74	kitchen	sun_acfmftudsenhrfhy.tif	1377922.803825	1377923.062416	1377923.802712	6.590120e-01	64	none	NaN	NaN
103	6	25	66	kitchen	sun_aapllqyqlykszopd.tif	1377924.572241	1377924.830830	1377925.570939	7.174055e-01	56	none	NaN	NaN
103	6	26	95	kitchen	sun_aixorpehvfykdynp.tif	1377926.340659	1377926.599262	1377927.339391	7.591151e-01	85	none	NaN	NaN
103	6	27	70	kitchen	sun_abdxkyyxwfskuaqb.tif	1377928.109079	1377928.367670	1377929.107885	8.341924e-01	60	39	1377929.767703	1
103	6	28	75	kitchen	sun_acgtpgfybqjmzeyw.tif	1377930.544825	1377930.803415	1377931.543698	8.425343e-01	65	none	NaN	NaN
103	6	29	94	kitchen	sun_ahywdevtimnqcsln.tif	1377932.313245	1377932.571833	1377933.311999	7.424312e-01	84	none	NaN	NaN
103	6	30	85	kitchen	sun_afuyedyxivkhecmu.tif	1377934.081659	1377934.340252	1377935.080420	7.841409e-01	75	none	NaN	NaN
103	6	31	107	kitchen	sun_axyyrmzcupyhlivc.tif	1377935.850080	1377936.108667	1377936.848820	8.175086e-01	97	none	NaN	NaN
103	6	32	91	kitchen	sun_ahljzhgcdpomplvg.tif	1377937.618499	1377937.877086	1377938.617246	7.257474e-01	81	none	NaN	NaN
103	6	33	96	kitchen	sun_ajcbwwvdlsvjyzje.tif	1377939.386915	1377939.645506	1377940.385769	7.757989e-01	86	39	1377941.127724	1
103	6	34	82	kitchen	sun_aenotlpyftoioydp.tif	1377941.906075	1377942.164667	1377942.904875	7.591151e-01	72	37	1377943.976074	1
103	6	35	102	kitchen	sun_auaiucuqpdausiva.tif	1377944.750565	1377945.009149	1377945.749426	8.008247e-01	92	37	1377946.759881	1
103	6	36	72	kitchen	sun_abpwyqmlzafvklqo.tif	1377947.536648	1377947.795238	1377948.535461	7.257474e-01	62	none	NaN	NaN
103	6	37	84	kitchen	sun_aexklacwqwezaorf.tif	1377949.305069	1377949.563664	1377950.303950	7.674570e-01	74	39	1377950.991996	1
103	6	38	101	kitchen	sun_aqeaevwwwjoqhzvl.tif	1377951.765836	1377952.024426	1377952.764732	7.674570e-01	91	none	NaN	NaN
103	6	39	110	kitchen	sun_azmutvzbxypaceni.tif	1377953.534260	1377953.792847	1377954.533050	6.590120e-01	100	none	NaN	NaN
103	6	40	83	kitchen	sun_aeqdocilnnpuvuhx.tif	1377955.302677	1377955.561268	1377956.301557	8.008247e-01	73	none	NaN	NaN
103	6	41	77	kitchen	sun_acxkpeoqbwcxfvip.tif	1377957.071096	1377957.329681	1377958.069860	8.258505e-01	67	none	NaN	NaN
103	6	42	63	kitchen	labelme_rykdqxenmhulbdn.tif	1377958.839509	1377959.098099	1377959.838280	6.506701e-01	53	none	NaN	NaN
103	6	43	80	kitchen	sun_aegoxogugdkwpmpj.tif	1377960.607938	1377960.866518	1377961.606633	7.090635e-01	70	none	NaN	NaN
103	6	44	79	kitchen	sun_admlmbcdswaszruo.tif	1377962.376350	1377962.634942	1377963.375237	7.924828e-01	69	37	1377964.071984	1
103	6	45	61	kitchen	labelme_brsyyvweiuaazfr.tif	1377964.845463	1377965.104043	1377965.844340	7.007216e-01	51	none	NaN	NaN
103	6	46	97	kitchen	sun_ajkqhtgcbgpcwrwn.tif	1377966.613878	1377966.872467	1377967.612704	7.090635e-01	87	none	NaN	NaN
103	6	47	88	kitchen	sun_agubuxuukhzyzpdp.tif	1377968.382298	1377968.640882	1377969.381203	7.340893e-01	78	none	NaN	NaN
103	6	48	104	kitchen	sun_auticobqsbwgoppi.tif	1377970.150715	1377970.409306	1377971.149438	7.757989e-01	94	none	NaN	NaN
103	6	49	76	kitchen	sun_acwjdupvyjsugpay.tif	1377971.919133	1377972.177721	1377972.917853	7.591151e-01	66	none	NaN	NaN
103	6	50	92	kitchen	sun_ahpczsiumwwocjkv.tif	1377973.687550	1377973.946138	1377974.686403	7.174055e-01	82	none	NaN	NaN
103	6	51	105	kitchen	sun_avszsnwsbuqfgzbn.tif	1377975.455968	1377975.714554	1377976.454739	8.258505e-01	95	none	NaN	NaN
103	6	52	92	kitchen	sun_ahpczsiumwwocjkv.tif	1377977.224387	1377977.482980	1377978.223124	8.341924e-01	82	none	NaN	NaN
103	6	53	83	kitchen	sun_aeqdocilnnpuvuhx.tif	1377978.992804	1377979.251392	1377979.991634	7.340893e-01	73	none	NaN	NaN
103	6	54	94	kitchen	sun_ahywdevtimnqcsln.tif	1377980.761221	1377981.019814	1377981.759993	8.091666e-01	84	none	NaN	NaN
103	6	55	101	kitchen	sun_aqeaevwwwjoqhzvl.tif	1377982.529641	1377982.788230	1377983.528461	7.007216e-01	91	none	NaN	NaN
103	6	56	81	kitchen	sun_aehawpgmrlhlvcow.tif	1377984.298056	1377984.556650	1377985.296882	6.840378e-01	71	none	NaN	NaN
103	6	57	87	kitchen	sun_agorklincwxrdtga.tif	1377986.066470	1377986.325067	1377987.065225	8.091666e-01	77	none	NaN	NaN
103	6	58	89	kitchen	sun_agzzivivdpnawacl.tif	1377987.834896	1377988.093479	1377988.833615	7.257474e-01	79	none	NaN	NaN
103	6	59	74	kitchen	sun_acfmftudsenhrfhy.tif	1377989.603310	1377989.861901	1377990.602134	8.008247e-01	64	none	NaN	NaN
103	6	60	67	kitchen	sun_aarfiyshqohlwkmo.tif	1377991.371731	1377991.630321	1377992.370631	6.923797e-01	57	none	NaN	NaN
103	6	61	63	kitchen	labelme_rykdqxenmhulbdn.tif	1377993.140149	1377993.398737	1377994.139038	6.673539e-01	53	none	NaN	NaN
103	6	62	84	kitchen	sun_aexklacwqwezaorf.tif	1377994.908565	1377995.167146	1377995.907422	6.590120e-01	74	none	NaN	NaN
103	6	63	103	kitchen	sun_aunzlwrbjumxhwdj.tif	1377996.676981	1377996.935573	1377997.675681	6.923797e-01	93	37	1377998.408121	1
103	6	64	91	kitchen	sun_ahljzhgcdpomplvg.tif	1377999.179464	1377999.438047	1378000.178378	6.923797e-01	81	none	NaN	NaN
103	6	65	62	kitchen	labelme_kxvouciolcpqplr.tif	1378000.947878	1378001.206467	1378001.946741	7.424312e-01	52	37	1378002.695713	0
103	6	66	106	kitchen	sun_awcpdzzznmweyyhv.tif	1378003.467039	1378003.725626	1378004.465892	6.673539e-01	96	none	NaN	NaN
103	6	67	68	kitchen	sun_aaxxjlsuzvqlgylf.tif	1378005.235460	1378005.494050	1378006.234314	7.507732e-01	58	none	NaN	NaN
103	6	68	65	kitchen	sun_aamedkxepzlwuxes.tif	1378007.003874	1378007.262467	1378008.002637	7.340893e-01	55	none	NaN	NaN
103	6	69	96	kitchen	sun_ajcbwwvdlsvjyzje.tif	1378008.772296	1378009.030886	1378009.771119	7.007216e-01	86	none	NaN	NaN
103	6	70	110	kitchen	sun_azmutvzbxypaceni.tif	1378010.540710	1378010.799299	1378011.539649	8.425343e-01	100	none	NaN	NaN
103	6	71	77	kitchen	sun_acxkpeoqbwcxfvip.tif	1378012.309131	1378012.567718	1378013.308014	8.508762e-01	67	37	1378014.007988	0
103	6	72	86	kitchen	sun_aggjlwcdjsjcaemh.tif	1378014.778244	1378015.036830	1378015.776943	7.924828e-01	76	none	NaN	NaN
103	6	73	64	kitchen	sun_aadbddgrdsjugojn.tif	1378016.546659	1378016.805250	1378017.545546	6.756958e-01	54	none	NaN	NaN
103	6	74	76	kitchen	sun_acwjdupvyjsugpay.tif	1378018.315082	1378018.573661	1378019.313796	8.175086e-01	66	none	NaN	NaN
103	6	75	104	kitchen	sun_auticobqsbwgoppi.tif	1378020.083496	1378020.342087	1378021.082405	8.508762e-01	94	none	NaN	NaN
103	6	76	95	kitchen	sun_aixorpehvfykdynp.tif	1378021.851913	1378022.110500	1378022.850630	7.507732e-01	85	none	NaN	NaN
103	6	77	109	kitchen	sun_aypmqwcualkenuoe.tif	1378023.620333	1378023.878945	1378024.619175	8.341924e-01	99	none	NaN	NaN
103	6	78	108	kitchen	sun_aymvwlarqodbwuoc.tif	1378025.388746	1378025.647340	1378026.387507	6.756958e-01	98	37	1378027.152021	1
103	6	79	100	kitchen	sun_amjjdeyrggfqgmom.tif	1378027.924601	1378028.183183	1378028.923517	7.591151e-01	90	none	NaN	NaN
103	6	80	99	kitchen	sun_akcjzhbbjlbogpdi.tif	1378029.693011	1378029.951601	1378030.691911	6.590120e-01	89	none	NaN	NaN
103	6	81	70	kitchen	sun_abdxkyyxwfskuaqb.tif	1378031.461429	1378031.720024	1378032.460296	7.174055e-01	60	none	NaN	NaN
103	6	82	75	kitchen	sun_acgtpgfybqjmzeyw.tif	1378033.229849	1378033.488439	1378034.228562	6.673539e-01	65	37	1378035.055911	1
103	6	83	90	kitchen	sun_ahdycvpopffkzzsu.tif	1378035.832421	1378036.091016	1378036.831340	6.756958e-01	80	none	NaN	NaN
103	6	84	97	kitchen	sun_ajkqhtgcbgpcwrwn.tif	1378037.600845	1378037.859439	1378038.599633	6.840378e-01	87	none	NaN	NaN
103	6	85	88	kitchen	sun_agubuxuukhzyzpdp.tif	1378039.369260	1378039.627851	1378040.368154	6.506701e-01	78	none	NaN	NaN
103	6	86	80	kitchen	sun_aegoxogugdkwpmpj.tif	1378041.137680	1378041.396267	1378042.136481	8.091666e-01	70	none	NaN	NaN
103	6	87	82	kitchen	sun_aenotlpyftoioydp.tif	1378042.906095	1378043.164687	1378043.904848	7.257474e-01	72	none	NaN	NaN
103	6	88	102	kitchen	sun_auaiucuqpdausiva.tif	1378044.674514	1378044.933105	1378045.673219	7.924828e-01	92	39	1378047.008106	1
103	6	89	66	kitchen	sun_aapllqyqlykszopd.tif	1378047.785934	1378048.044518	1378048.784831	7.841409e-01	56	none	NaN	NaN
103	6	90	78	kitchen	sun_adgqasybjyktddhj.tif	1378049.554350	1378049.812934	1378050.553214	8.091666e-01	68	none	NaN	NaN
103	6	91	61	kitchen	labelme_brsyyvweiuaazfr.tif	1378051.322771	1378051.581351	1378052.321565	8.175086e-01	51	none	NaN	NaN
103	6	92	79	kitchen	sun_admlmbcdswaszruo.tif	1378053.091181	1378053.349773	1378054.089896	8.425343e-01	69	37	1378054.831899	1
103	6	93	73	kitchen	sun_abrcnpqqhmjwekyf.tif	1378055.610342	1378055.868929	1378056.609245	7.674570e-01	63	none	NaN	NaN
103	6	94	69	kitchen	sun_abdenxonkemggwsq.tif	1378057.378762	1378057.637355	1378058.377530	6.756958e-01	59	none	NaN	NaN
103	6	95	98	kitchen	sun_akchetnepxlcxhsu.tif	1378059.147180	1378059.405770	1378060.146023	7.757989e-01	88	none	NaN	NaN
103	6	96	107	kitchen	sun_axyyrmzcupyhlivc.tif	1378060.915601	1378061.174187	1378061.914393	7.841409e-01	97	none	NaN	NaN
103	6	97	71	kitchen	sun_abftihopvusyfakt.tif	1378062.684014	1378062.942606	1378063.682762	7.507732e-01	61	none	NaN	NaN
103	6	98	85	kitchen	sun_afuyedyxivkhecmu.tif	1378064.452434	1378064.711024	1378065.451274	7.340893e-01	75	none	NaN	NaN
103	6	99	93	kitchen	sun_ahspylgoovwmwvgk.tif	1378066.220851	1378066.479441	1378067.219724	7.424312e-01	83	none	NaN	NaN
103	6	100	72	kitchen	sun_abpwyqmlzafvklqo.tif	1378067.989274	1378068.247858	1378068.988176	7.424312e-01	62	none	NaN	NaN
103	7	1	30	bathroom	sun_ajlawzvmubibwbpy.tif	1378152.039168	1378152.297759	1378152.987977	6.673539e-01	20	37	1378153.728012	1
103	7	2	24	bathroom	sun_agrwbmhcpmfuwmsg.tif	1378154.499937	1378154.758528	1378155.448674	7.424312e-01	14	none	NaN	NaN
103	7	3	18	bathroom	sun_acgyywnybuveqsro.tif	1378156.218311	1378156.476896	1378157.167076	7.674570e-01	8	none	NaN	NaN
103	7	4	11	bathroom	labelme_sfxiulhjbhlyiyt.tif	1378157.936677	1378158.195266	1378158.885367	7.507732e-01	1	none	NaN	NaN
103	7	5	36	bathroom	sun_ambriybtogmepttm.tif	1378159.654993	1378159.913634	1378160.603696	7.841409e-01	26	none	NaN	NaN
103	7	6	59	bathroom	sun_axyrejkiiaqiurjk.tif	1378161.373412	1378161.632002	1378162.322184	8.008247e-01	49	37	1378163.592167	0
103	7	7	41	bathroom	sun_aoybiabnpadelefl.tif	1378164.368047	1378164.626631	1378165.316807	7.007216e-01	31	none	NaN	NaN
103	7	8	27	bathroom	sun_ahcvzmoyaycdoftf.tif	1378166.086418	1378166.344999	1378167.035221	7.340893e-01	17	none	NaN	NaN
103	7	9	33	bathroom	sun_aljolscmmzydegqp.tif	1378167.804786	1378168.063373	1378168.753533	7.424312e-01	23	none	NaN	NaN
103	7	10	19	bathroom	sun_aclfzgynxzxlbepz.tif	1378169.523152	1378169.781740	1378170.472002	6.756958e-01	9	none	NaN	NaN
103	7	11	50	bathroom	sun_aspsyogrekjtfozg.tif	1378171.241520	1378171.500107	1378172.190356	7.507732e-01	40	none	NaN	NaN
103	7	12	25	bathroom	sun_agyqfjcfkdcydepw.tif	1378172.959887	1378173.218482	1378173.908712	6.506701e-01	15	37	1378174.584037	1
103	7	13	48	bathroom	sun_aqrpegblszgcoujh.tif	1378175.362268	1378175.620857	1378176.311057	8.008247e-01	38	none	NaN	NaN
103	7	14	52	bathroom	sun_aunuadmjocsddsrl.tif	1378177.080675	1378177.339228	1378178.029428	8.341924e-01	42	none	NaN	NaN
103	7	15	45	bathroom	sun_apkxzenqapsujocq.tif	1378178.799005	1378179.057592	1378179.747872	7.924828e-01	35	none	NaN	NaN
103	7	16	54	bathroom	sun_auzqhkafidnkrwmo.tif	1378180.517371	1378180.775964	1378181.466211	6.840378e-01	44	none	NaN	NaN
103	7	17	43	bathroom	sun_apjevzvycyhuqghb.tif	1378182.235738	1378182.494333	1378183.184521	6.923797e-01	33	37	1378184.007731	1
103	7	18	23	bathroom	sun_aghyqhbptboemmoq.tif	1378184.779929	1378185.038519	1378185.728581	7.591151e-01	13	none	NaN	NaN
103	7	19	57	bathroom	sun_axldvoqbuvuggfmq.tif	1378186.498298	1378186.756881	1378187.447125	7.507732e-01	47	none	NaN	NaN
103	7	20	13	bathroom	sun_aavhrsfjbserjtht.tif	1378188.216661	1378188.475257	1378189.165326	8.175086e-01	3	none	NaN	NaN
103	7	21	28	bathroom	sun_ahijqszoswveeyji.tif	1378189.935033	1378190.193621	1378190.883710	7.340893e-01	18	39	1378191.583712	1
103	7	22	51	bathroom	sun_atstyziqcmkahyxk.tif	1378192.354095	1378192.612682	1378193.302800	7.257474e-01	41	none	NaN	NaN
103	7	23	55	bathroom	sun_avhrdrntsqrjzccq.tif	1378194.072464	1378194.331055	1378195.021220	7.090635e-01	45	none	NaN	NaN
103	7	24	40	bathroom	sun_aofnryafpsjimzsb.tif	1378195.790828	1378196.049420	1378196.739562	6.923797e-01	30	none	NaN	NaN
103	7	25	44	bathroom	sun_apkruvsevgegsdwp.tif	1378197.509201	1378197.767787	1378198.457966	8.091666e-01	34	none	NaN	NaN
103	7	26	42	bathroom	sun_apeeialkgkuxddgh.tif	1378199.227570	1378199.486159	1378200.176352	8.175086e-01	32	none	NaN	NaN
103	7	27	20	bathroom	sun_afcoljnjfoxjtgja.tif	1378200.945933	1378201.204528	1378201.894784	7.174055e-01	10	none	NaN	NaN
103	7	28	17	bathroom	sun_acegryoqftbzowsg.tif	1378202.664306	1378202.922891	1378203.613148	8.258505e-01	7	none	NaN	NaN
103	7	29	37	bathroom	sun_amzlamotzwfkwjco.tif	1378204.382672	1378204.641261	1378205.331408	6.923797e-01	27	none	NaN	NaN
103	7	30	16	bathroom	sun_acduarbnmmoglmiv.tif	1378206.101044	1378206.359635	1378207.049993	6.840378e-01	6	none	NaN	NaN
103	7	31	34	bathroom	sun_alkosphxlxwjwgjd.tif	1378207.819413	1378208.078001	1378208.768233	8.341924e-01	24	none	NaN	NaN
103	7	32	49	bathroom	sun_asfwthctfqerjvxr.tif	1378209.537777	1378209.796368	1378210.486423	7.674570e-01	39	none	NaN	NaN
103	7	33	31	bathroom	sun_akiytfaagpdsphgz.tif	1378211.256145	1378211.514738	1378212.204843	7.924828e-01	21	none	NaN	NaN
103	7	34	53	bathroom	sun_ausgutylgojavyoq.tif	1378212.974515	1378213.233105	1378213.923381	7.090635e-01	43	39	1378214.656046	1
103	7	35	39	bathroom	sun_anryaplzeujmzfkd.tif	1378215.426946	1378215.685529	1378216.375638	8.425343e-01	29	none	NaN	NaN
103	7	36	21	bathroom	sun_aggnnqpdorgxpvce.tif	1378217.145316	1378217.403902	1378218.094097	7.924828e-01	11	37	1378219.480019	0
103	7	37	56	bathroom	sun_awnqiikzaispgmwo.tif	1378220.256728	1378220.515318	1378221.205511	7.340893e-01	46	none	NaN	NaN
103	7	38	14	bathroom	sun_abapwbhyhkfixyex.tif	1378221.975094	1378222.233683	1378222.923945	8.175086e-01	4	none	NaN	NaN
103	7	39	60	bathroom	sun_azqyogdvyhahyram.tif	1378223.693462	1378223.952049	1378224.642197	7.591151e-01	50	none	NaN	NaN
103	7	40	38	bathroom	sun_anhioqovhscjqqwb.tif	1378225.411834	1378225.670420	1378226.360508	8.258505e-01	28	none	NaN	NaN
103	7	41	47	bathroom	sun_apynckhmoftszqoq.tif	1378227.130201	1378227.388788	1378228.078965	6.506701e-01	37	none	NaN	NaN
103	7	42	12	bathroom	sun_aapitsgbtktqubfy.tif	1378228.848566	1378229.107156	1378229.797407	8.008247e-01	2	none	NaN	NaN
103	7	43	22	bathroom	sun_agguqiubmwhqqunb.tif	1378230.566937	1378230.825527	1378231.515670	7.424312e-01	12	37	1378232.608018	1
103	7	44	46	bathroom	sun_apmqjbnwghzuhhzh.tif	1378233.386416	1378233.644986	1378234.335238	8.341924e-01	36	none	NaN	NaN
103	7	45	58	bathroom	sun_axxbkopsgyouuebh.tif	1378235.104766	1378235.363354	1378236.053468	8.258505e-01	48	none	NaN	NaN
103	7	46	35	bathroom	sun_alotolagknyrgtsk.tif	1378236.823135	1378237.081725	1378237.771826	8.425343e-01	25	none	NaN	NaN
103	7	47	26	bathroom	sun_ahaulkltgpkeeemi.tif	1378238.541501	1378238.800089	1378239.490280	8.091666e-01	16	none	NaN	NaN
103	7	48	29	bathroom	sun_ahqjwnzgolcaoidx.tif	1378240.259870	1378240.518457	1378241.208581	6.673539e-01	19	none	NaN	NaN
103	7	49	32	bathroom	sun_aleqenyvunhactkl.tif	1378241.978238	1378242.236833	1378242.926902	7.591151e-01	22	none	NaN	NaN
103	7	50	15	bathroom	sun_abjtwfukuwddzted.tif	1378243.696603	1378243.955192	1378244.645412	6.590120e-01	5	none	NaN	NaN
103	7	51	16	bathroom	sun_acduarbnmmoglmiv.tif	1378245.414975	1378245.673563	1378246.363635	7.174055e-01	6	none	NaN	NaN
103	7	52	53	bathroom	sun_ausgutylgojavyoq.tif	1378247.133341	1378247.391932	1378248.081989	8.341924e-01	43	none	NaN	NaN
103	7	53	23	bathroom	sun_aghyqhbptboemmoq.tif	1378248.851712	1378249.110301	1378249.800446	7.757989e-01	13	none	NaN	NaN
103	7	54	17	bathroom	sun_acegryoqftbzowsg.tif	1378250.570077	1378250.828665	1378251.518752	6.673539e-01	7	none	NaN	NaN
103	7	55	32	bathroom	sun_aleqenyvunhactkl.tif	1378252.288445	1378252.547040	1378253.237154	8.425343e-01	22	37	1378254.231985	1
103	7	56	37	bathroom	sun_amzlamotzwfkwjco.tif	1378255.007807	1378255.266398	1378255.956647	8.091666e-01	27	none	NaN	NaN
103	7	57	59	bathroom	sun_axyrejkiiaqiurjk.tif	1378256.726178	1378256.984763	1378257.674900	7.507732e-01	49	37	1378258.512042	0
103	7	58	41	bathroom	sun_aoybiabnpadelefl.tif	1378259.287048	1378259.545636	1378260.235864	7.007216e-01	31	none	NaN	NaN
103	7	59	26	bathroom	sun_ahaulkltgpkeeemi.tif	1378261.005410	1378261.264000	1378261.954199	8.091666e-01	16	none	NaN	NaN
103	7	60	55	bathroom	sun_avhrdrntsqrjzccq.tif	1378262.723785	1378262.982368	1378263.672437	6.756958e-01	45	none	NaN	NaN
103	7	61	40	bathroom	sun_aofnryafpsjimzsb.tif	1378264.442149	1378264.700739	1378265.390978	7.340893e-01	30	none	NaN	NaN
103	7	62	33	bathroom	sun_aljolscmmzydegqp.tif	1378266.160521	1378266.419109	1378267.109205	6.923797e-01	23	none	NaN	NaN
103	7	63	24	bathroom	sun_agrwbmhcpmfuwmsg.tif	1378267.878890	1378268.137478	1378268.827689	7.591151e-01	14	none	NaN	NaN
103	7	64	39	bathroom	sun_anryaplzeujmzfkd.tif	1378269.597255	1378269.855842	1378270.546038	8.508762e-01	29	none	NaN	NaN
103	7	65	38	bathroom	sun_anhioqovhscjqqwb.tif	1378271.315620	1378271.574213	1378272.264447	6.590120e-01	28	none	NaN	NaN
103	7	66	15	bathroom	sun_abjtwfukuwddzted.tif	1378273.033989	1378273.292585	1378273.982764	6.756958e-01	5	none	NaN	NaN
103	7	67	42	bathroom	sun_apeeialkgkuxddgh.tif	1378274.752357	1378275.010949	1378275.701125	7.841409e-01	32	none	NaN	NaN
103	7	68	11	bathroom	labelme_sfxiulhjbhlyiyt.tif	1378276.470727	1378276.729317	1378277.419409	8.508762e-01	1	none	NaN	NaN
103	7	69	12	bathroom	sun_aapitsgbtktqubfy.tif	1378278.189099	1378278.447688	1378279.137885	6.840378e-01	2	none	NaN	NaN
103	7	70	43	bathroom	sun_apjevzvycyhuqghb.tif	1378279.907461	1378280.166052	1378280.856115	7.257474e-01	33	none	NaN	NaN
103	7	71	47	bathroom	sun_apynckhmoftszqoq.tif	1378281.625832	1378281.884422	1378282.574571	8.008247e-01	37	37	1378283.248052	1
103	7	72	34	bathroom	sun_alkosphxlxwjwgjd.tif	1378284.019869	1378284.278462	1378284.968602	7.591151e-01	24	none	NaN	NaN
103	7	73	30	bathroom	sun_ajlawzvmubibwbpy.tif	1378285.738240	1378285.996833	1378286.686882	7.174055e-01	20	none	NaN	NaN
103	7	74	56	bathroom	sun_awnqiikzaispgmwo.tif	1378287.456605	1378287.715198	1378288.405464	6.590120e-01	46	none	NaN	NaN
103	7	75	36	bathroom	sun_ambriybtogmepttm.tif	1378289.174973	1378289.433563	1378290.123672	8.175086e-01	26	none	NaN	NaN
103	7	76	46	bathroom	sun_apmqjbnwghzuhhzh.tif	1378290.893344	1378291.151932	1378291.842193	6.673539e-01	36	none	NaN	NaN
103	7	77	14	bathroom	sun_abapwbhyhkfixyex.tif	1378292.611714	1378292.870300	1378293.560397	7.757989e-01	4	none	NaN	NaN
103	7	78	19	bathroom	sun_aclfzgynxzxlbepz.tif	1378294.330080	1378294.588675	1378295.278854	6.923797e-01	9	none	NaN	NaN
103	7	79	25	bathroom	sun_agyqfjcfkdcydepw.tif	1378296.048450	1378296.307043	1378296.997181	7.007216e-01	15	none	NaN	NaN
103	7	80	13	bathroom	sun_aavhrsfjbserjtht.tif	1378297.766815	1378298.025424	1378298.715590	7.257474e-01	3	none	NaN	NaN
103	7	81	60	bathroom	sun_azqyogdvyhahyram.tif	1378299.485191	1378299.743773	1378300.433992	7.424312e-01	50	none	NaN	NaN
103	7	82	50	bathroom	sun_aspsyogrekjtfozg.tif	1378301.203556	1378301.462142	1378302.152345	6.506701e-01	40	39	1378302.951927	1
103	7	83	22	bathroom	sun_agguqiubmwhqqunb.tif	1378303.722718	1378303.981305	1378304.671476	6.590120e-01	12	none	NaN	NaN
103	7	84	20	bathroom	sun_afcoljnjfoxjtgja.tif	1378305.441083	1378305.699671	1378306.389863	8.258505e-01	10	none	NaN	NaN
103	7	85	18	bathroom	sun_acgyywnybuveqsro.tif	1378307.159447	1378307.418039	1378308.108259	6.756958e-01	8	none	NaN	NaN
103	7	86	58	bathroom	sun_axxbkopsgyouuebh.tif	1378308.877820	1378309.136419	1378309.826636	7.757989e-01	48	none	NaN	NaN
103	7	87	35	bathroom	sun_alotolagknyrgtsk.tif	1378310.596184	1378310.854778	1378311.544975	7.257474e-01	25	none	NaN	NaN
103	7	88	44	bathroom	sun_apkruvsevgegsdwp.tif	1378312.314560	1378312.573144	1378313.263262	7.007216e-01	34	none	NaN	NaN
103	7	89	48	bathroom	sun_aqrpegblszgcoujh.tif	1378314.032930	1378314.291514	1378314.981647	7.841409e-01	38	none	NaN	NaN
103	7	90	45	bathroom	sun_apkxzenqapsujocq.tif	1378315.751292	1378316.009881	1378316.699976	7.841409e-01	35	none	NaN	NaN
103	7	91	57	bathroom	sun_axldvoqbuvuggfmq.tif	1378317.469663	1378317.728253	1378318.418323	7.090635e-01	47	37	1378319.240166	0
103	7	92	51	bathroom	sun_atstyziqcmkahyxk.tif	1378320.013845	1378320.272439	1378320.962498	7.174055e-01	41	none	NaN	NaN
103	7	93	31	bathroom	sun_akiytfaagpdsphgz.tif	1378321.732217	1378321.990804	1378322.680935	7.924828e-01	21	none	NaN	NaN
103	7	94	29	bathroom	sun_ahqjwnzgolcaoidx.tif	1378323.450587	1378323.709174	1378324.399484	8.258505e-01	19	none	NaN	NaN
103	7	95	54	bathroom	sun_auzqhkafidnkrwmo.tif	1378325.168954	1378325.427546	1378326.117674	8.425343e-01	44	37	1378326.799741	1
103	7	96	49	bathroom	sun_asfwthctfqerjvxr.tif	1378327.571335	1378327.829925	1378328.520093	7.757989e-01	39	none	NaN	NaN
103	7	97	52	bathroom	sun_aunuadmjocsddsrl.tif	1378329.289699	1378329.548291	1378330.238473	7.674570e-01	42	none	NaN	NaN
103	7	98	28	bathroom	sun_ahijqszoswveeyji.tif	1378331.008070	1378331.266657	1378331.956864	6.840378e-01	18	none	NaN	NaN
103	7	99	21	bathroom	sun_aggnnqpdorgxpvce.tif	1378332.726431	1378332.985021	1378333.675088	7.090635e-01	11	37	1378334.880039	1
103	7	100	27	bathroom	sun_ahcvzmoyaycdoftf.tif	1378335.654333	1378335.912925	1378336.603053	7.674570e-01	17	none	NaN	NaN
103	8	1	66	kitchen	sun_aapllqyqlykszopd.tif	1378341.977264	1378342.235859	1378342.917567	6.756958e-01	56	none	NaN	NaN
103	8	2	91	kitchen	sun_ahljzhgcdpomplvg.tif	1378343.687291	1378343.945882	1378344.627607	7.591151e-01	81	37	1378345.383714	1
103	8	3	104	kitchen	sun_auticobqsbwgoppi.tif	1378346.156401	1378346.414992	1378347.096756	8.508762e-01	94	none	NaN	NaN
103	8	4	109	kitchen	sun_aypmqwcualkenuoe.tif	1378347.866431	1378348.125018	1378348.806745	7.757989e-01	99	none	NaN	NaN
103	8	5	81	kitchen	sun_aehawpgmrlhlvcow.tif	1378349.576457	1378349.835050	1378350.516799	7.090635e-01	71	37	1378351.231964	1
103	8	6	101	kitchen	sun_aqeaevwwwjoqhzvl.tif	1378352.003871	1378352.262444	1378352.944176	7.257474e-01	91	none	NaN	NaN
103	8	7	85	kitchen	sun_afuyedyxivkhecmu.tif	1378353.713889	1378353.972476	1378354.654263	8.258505e-01	75	none	NaN	NaN
103	8	8	83	kitchen	sun_aeqdocilnnpuvuhx.tif	1378355.423917	1378355.682500	1378356.364226	6.923797e-01	73	none	NaN	NaN
103	8	9	80	kitchen	sun_aegoxogugdkwpmpj.tif	1378357.133942	1378357.392529	1378358.074399	8.091666e-01	70	none	NaN	NaN
103	8	10	86	kitchen	sun_aggjlwcdjsjcaemh.tif	1378358.843970	1378359.102559	1378359.784309	6.673539e-01	76	37	1378360.600002	0
103	8	11	65	kitchen	sun_aamedkxepzlwuxes.tif	1378361.371479	1378361.630062	1378362.311893	7.007216e-01	55	none	NaN	NaN
103	8	12	98	kitchen	sun_akchetnepxlcxhsu.tif	1378363.081497	1378363.340086	1378364.021950	7.007216e-01	88	none	NaN	NaN
103	8	13	77	kitchen	sun_acxkpeoqbwcxfvip.tif	1378364.791525	1378365.050111	1378365.731933	8.008247e-01	67	none	NaN	NaN
103	8	14	96	kitchen	sun_ajcbwwvdlsvjyzje.tif	1378366.501551	1378366.760140	1378367.442006	8.258505e-01	86	none	NaN	NaN
103	8	15	84	kitchen	sun_aexklacwqwezaorf.tif	1378368.211571	1378368.470165	1378369.151909	7.257474e-01	74	37	1378370.007956	0
103	8	16	79	kitchen	sun_admlmbcdswaszruo.tif	1378370.780786	1378371.039375	1378371.721130	7.507732e-01	69	none	NaN	NaN
103	8	17	89	kitchen	sun_agzzivivdpnawacl.tif	1378372.490816	1378372.749411	1378373.431229	8.425343e-01	79	37	1378374.255936	1
103	8	18	92	kitchen	sun_ahpczsiumwwocjkv.tif	1378375.026654	1378375.285251	1378375.967061	8.425343e-01	82	none	NaN	NaN
103	8	19	93	kitchen	sun_ahspylgoovwmwvgk.tif	1378376.736689	1378376.995277	1378377.677202	7.757989e-01	83	39	1378378.440091	1
103	8	20	87	kitchen	sun_agorklincwxrdtga.tif	1378379.214138	1378379.472730	1378380.154495	7.841409e-01	77	37	1378380.968031	1
103	8	21	68	kitchen	sun_aaxxjlsuzvqlgylf.tif	1378381.741592	1378382.000228	1378382.682052	6.840378e-01	58	none	NaN	NaN
103	8	22	76	kitchen	sun_acwjdupvyjsugpay.tif	1378383.451667	1378383.710260	1378384.392036	6.590120e-01	66	none	NaN	NaN
103	8	23	67	kitchen	sun_aarfiyshqohlwkmo.tif	1378385.161694	1378385.420284	1378386.102054	6.590120e-01	57	none	NaN	NaN
103	8	24	97	kitchen	sun_ajkqhtgcbgpcwrwn.tif	1378386.871718	1378387.130311	1378387.812223	7.507732e-01	87	none	NaN	NaN
103	8	25	110	kitchen	sun_azmutvzbxypaceni.tif	1378388.581751	1378388.840333	1378389.522055	7.174055e-01	100	none	NaN	NaN
103	8	26	105	kitchen	sun_avszsnwsbuqfgzbn.tif	1378390.291776	1378390.550365	1378391.232170	7.841409e-01	95	none	NaN	NaN
103	8	27	70	kitchen	sun_abdxkyyxwfskuaqb.tif	1378392.001799	1378392.260391	1378392.942215	8.508762e-01	60	none	NaN	NaN
103	8	28	69	kitchen	sun_abdenxonkemggwsq.tif	1378393.711826	1378393.970424	1378394.652134	7.507732e-01	59	none	NaN	NaN
103	8	29	64	kitchen	sun_aadbddgrdsjugojn.tif	1378395.421856	1378395.680448	1378396.362257	8.425343e-01	54	none	NaN	NaN
103	8	30	72	kitchen	sun_abpwyqmlzafvklqo.tif	1378397.131883	1378397.390474	1378398.072209	7.674570e-01	62	none	NaN	NaN
103	8	31	71	kitchen	sun_abftihopvusyfakt.tif	1378398.841910	1378399.100501	1378399.782371	7.591151e-01	61	none	NaN	NaN
103	8	32	108	kitchen	sun_aymvwlarqodbwuoc.tif	1378400.551934	1378400.810523	1378401.492261	8.341924e-01	98	none	NaN	NaN
103	8	33	102	kitchen	sun_auaiucuqpdausiva.tif	1378402.261966	1378402.520555	1378403.202335	7.340893e-01	92	none	NaN	NaN
103	8	34	75	kitchen	sun_acgtpgfybqjmzeyw.tif	1378403.971992	1378404.230580	1378404.912343	7.924828e-01	65	none	NaN	NaN
103	8	35	100	kitchen	sun_amjjdeyrggfqgmom.tif	1378405.682016	1378405.940601	1378406.622350	8.258505e-01	90	none	NaN	NaN
103	8	36	74	kitchen	sun_acfmftudsenhrfhy.tif	1378407.392045	1378407.650632	1378408.332549	7.674570e-01	64	none	NaN	NaN
103	8	37	73	kitchen	sun_abrcnpqqhmjwekyf.tif	1378409.102065	1378409.360656	1378410.042397	8.008247e-01	63	none	NaN	NaN
103	8	38	94	kitchen	sun_ahywdevtimnqcsln.tif	1378410.812098	1378411.070686	1378411.752574	8.175086e-01	84	none	NaN	NaN
103	8	39	106	kitchen	sun_awcpdzzznmweyyhv.tif	1378412.522124	1378412.780705	1378413.462550	6.923797e-01	96	none	NaN	NaN
103	8	40	103	kitchen	sun_aunzlwrbjumxhwdj.tif	1378414.232148	1378414.490733	1378415.172574	7.174055e-01	93	none	NaN	NaN
103	8	41	99	kitchen	sun_akcjzhbbjlbogpdi.tif	1378415.942176	1378416.200767	1378416.882580	7.424312e-01	89	none	NaN	NaN
103	8	42	63	kitchen	labelme_rykdqxenmhulbdn.tif	1378417.652203	1378417.910794	1378418.592639	8.258505e-01	53	none	NaN	NaN
103	8	43	61	kitchen	labelme_brsyyvweiuaazfr.tif	1378419.362228	1378419.620820	1378420.302615	7.507732e-01	51	none	NaN	NaN
103	8	44	88	kitchen	sun_agubuxuukhzyzpdp.tif	1378421.072260	1378421.330849	1378422.012575	7.591151e-01	78	none	NaN	NaN
103	8	45	95	kitchen	sun_aixorpehvfykdynp.tif	1378422.782284	1378423.040871	1378423.722718	7.090635e-01	85	none	NaN	NaN
103	8	46	62	kitchen	labelme_kxvouciolcpqplr.tif	1378424.492307	1378424.750891	1378425.432723	7.841409e-01	52	none	NaN	NaN
103	8	47	78	kitchen	sun_adgqasybjyktddhj.tif	1378426.202333	1378426.460926	1378427.142651	8.425343e-01	68	none	NaN	NaN
103	8	48	82	kitchen	sun_aenotlpyftoioydp.tif	1378427.912363	1378428.170953	1378428.852690	6.756958e-01	72	37	1378429.695718	1
103	8	49	90	kitchen	sun_ahdycvpopffkzzsu.tif	1378430.473230	1378430.731824	1378431.413616	7.424312e-01	80	none	NaN	NaN
103	8	50	107	kitchen	sun_axyyrmzcupyhlivc.tif	1378432.183259	1378432.441855	1378433.123660	6.840378e-01	97	none	NaN	NaN
103	8	51	109	kitchen	sun_aypmqwcualkenuoe.tif	1378433.893290	1378434.151873	1378434.833689	7.757989e-01	99	none	NaN	NaN
103	8	52	75	kitchen	sun_acgtpgfybqjmzeyw.tif	1378435.603314	1378435.861904	1378436.543832	7.174055e-01	65	none	NaN	NaN
103	8	53	76	kitchen	sun_acwjdupvyjsugpay.tif	1378437.313342	1378437.571927	1378438.253694	6.756958e-01	66	none	NaN	NaN
103	8	54	66	kitchen	sun_aapllqyqlykszopd.tif	1378439.023374	1378439.281962	1378439.963822	6.506701e-01	56	none	NaN	NaN
103	8	55	107	kitchen	sun_axyyrmzcupyhlivc.tif	1378440.733390	1378440.991986	1378441.673731	7.007216e-01	97	37	1378442.312012	1
103	8	56	64	kitchen	sun_aadbddgrdsjugojn.tif	1378443.085723	1378443.344309	1378444.026208	8.258505e-01	54	37	1378444.855686	1
103	8	57	101	kitchen	sun_aqeaevwwwjoqhzvl.tif	1378445.629908	1378445.888501	1378446.570426	6.923797e-01	91	none	NaN	NaN
103	8	58	79	kitchen	sun_admlmbcdswaszruo.tif	1378447.339932	1378447.598528	1378448.280235	7.257474e-01	69	none	NaN	NaN
103	8	59	61	kitchen	labelme_brsyyvweiuaazfr.tif	1378449.049963	1378449.308549	1378449.990478	7.591151e-01	51	none	NaN	NaN
103	8	60	92	kitchen	sun_ahpczsiumwwocjkv.tif	1378450.759990	1378451.018578	1378451.700395	7.591151e-01	82	none	NaN	NaN
103	8	61	63	kitchen	labelme_rykdqxenmhulbdn.tif	1378452.470014	1378452.728600	1378453.410398	7.340893e-01	53	none	NaN	NaN
103	8	62	93	kitchen	sun_ahspylgoovwmwvgk.tif	1378454.180046	1378454.438629	1378455.120444	7.257474e-01	83	none	NaN	NaN
103	8	63	106	kitchen	sun_awcpdzzznmweyyhv.tif	1378455.890070	1378456.148658	1378456.830426	6.923797e-01	96	none	NaN	NaN
103	8	64	83	kitchen	sun_aeqdocilnnpuvuhx.tif	1378457.600095	1378457.858686	1378458.540429	6.840378e-01	73	none	NaN	NaN
103	8	65	70	kitchen	sun_abdxkyyxwfskuaqb.tif	1378459.310120	1378459.568717	1378460.250420	7.007216e-01	60	none	NaN	NaN
103	8	66	84	kitchen	sun_aexklacwqwezaorf.tif	1378461.020149	1378461.278740	1378461.960644	7.757989e-01	74	none	NaN	NaN
103	8	67	78	kitchen	sun_adgqasybjyktddhj.tif	1378462.730175	1378462.988760	1378463.670529	7.924828e-01	68	none	NaN	NaN
103	8	68	77	kitchen	sun_acxkpeoqbwcxfvip.tif	1378464.440206	1378464.698795	1378465.380644	7.841409e-01	67	none	NaN	NaN
103	8	69	74	kitchen	sun_acfmftudsenhrfhy.tif	1378466.150233	1378466.408820	1378467.090556	8.091666e-01	64	none	NaN	NaN
103	8	70	94	kitchen	sun_ahywdevtimnqcsln.tif	1378467.860258	1378468.118854	1378468.800763	7.090635e-01	84	37	1378469.607746	0
103	8	71	95	kitchen	sun_aixorpehvfykdynp.tif	1378470.379422	1378470.638008	1378471.319922	6.673539e-01	85	39	1378472.448063	1
103	8	72	73	kitchen	sun_abrcnpqqhmjwekyf.tif	1378473.223897	1378473.482492	1378474.164353	8.008247e-01	63	37	1378475.000074	1
103	8	73	88	kitchen	sun_agubuxuukhzyzpdp.tif	1378475.776429	1378476.035015	1378476.716824	8.175086e-01	78	none	NaN	NaN
103	8	74	98	kitchen	sun_akchetnepxlcxhsu.tif	1378477.486457	1378477.745046	1378478.426965	8.008247e-01	88	none	NaN	NaN
103	8	75	80	kitchen	sun_aegoxogugdkwpmpj.tif	1378479.196483	1378479.455073	1378480.136906	6.673539e-01	70	39	1378480.920055	1
103	8	76	65	kitchen	sun_aamedkxepzlwuxes.tif	1378481.690616	1378481.949209	1378482.631022	7.674570e-01	55	none	NaN	NaN
103	8	77	103	kitchen	sun_aunzlwrbjumxhwdj.tif	1378483.400647	1378483.659232	1378484.341045	7.424312e-01	93	none	NaN	NaN
103	8	78	86	kitchen	sun_aggjlwcdjsjcaemh.tif	1378485.110669	1378485.369265	1378486.051172	8.091666e-01	76	none	NaN	NaN
103	8	79	71	kitchen	sun_abftihopvusyfakt.tif	1378486.820702	1378487.079291	1378487.761086	7.424312e-01	61	none	NaN	NaN
103	8	80	81	kitchen	sun_aehawpgmrlhlvcow.tif	1378488.530726	1378488.789317	1378489.471038	8.341924e-01	71	none	NaN	NaN
103	8	81	96	kitchen	sun_ajcbwwvdlsvjyzje.tif	1378490.240756	1378490.499341	1378491.181059	6.590120e-01	86	none	NaN	NaN
103	8	82	102	kitchen	sun_auaiucuqpdausiva.tif	1378491.950779	1378492.209367	1378492.891081	6.923797e-01	92	none	NaN	NaN
103	8	83	62	kitchen	labelme_kxvouciolcpqplr.tif	1378493.660809	1378493.919396	1378494.601124	7.340893e-01	52	none	NaN	NaN
103	8	84	108	kitchen	sun_aymvwlarqodbwuoc.tif	1378495.370833	1378495.629424	1378496.311318	6.590120e-01	98	none	NaN	NaN
103	8	85	72	kitchen	sun_abpwyqmlzafvklqo.tif	1378497.080860	1378497.339446	1378498.021290	8.175086e-01	62	none	NaN	NaN
103	8	86	87	kitchen	sun_agorklincwxrdtga.tif	1378498.790891	1378499.049472	1378499.731225	7.340893e-01	77	none	NaN	NaN
103	8	87	90	kitchen	sun_ahdycvpopffkzzsu.tif	1378500.500915	1378500.759506	1378501.441337	7.924828e-01	80	none	NaN	NaN
103	8	88	82	kitchen	sun_aenotlpyftoioydp.tif	1378502.210940	1378502.469526	1378503.151460	6.840378e-01	72	none	NaN	NaN
103	8	89	100	kitchen	sun_amjjdeyrggfqgmom.tif	1378503.920965	1378504.179552	1378504.861374	7.174055e-01	90	39	1378505.599930	1
103	8	90	67	kitchen	sun_aarfiyshqohlwkmo.tif	1378506.373397	1378506.631985	1378507.313841	7.090635e-01	57	none	NaN	NaN
103	8	91	104	kitchen	sun_auticobqsbwgoppi.tif	1378508.083422	1378508.342006	1378509.023749	8.091666e-01	94	none	NaN	NaN
103	8	92	110	kitchen	sun_azmutvzbxypaceni.tif	1378509.793448	1378510.052037	1378510.733901	7.674570e-01	100	none	NaN	NaN
103	8	93	105	kitchen	sun_avszsnwsbuqfgzbn.tif	1378511.503475	1378511.762064	1378512.443980	8.175086e-01	95	none	NaN	NaN
103	8	94	97	kitchen	sun_ajkqhtgcbgpcwrwn.tif	1378513.213505	1378513.472095	1378514.153988	8.341924e-01	87	none	NaN	NaN
103	8	95	85	kitchen	sun_afuyedyxivkhecmu.tif	1378514.923531	1378515.182118	1378515.863868	8.341924e-01	75	none	NaN	NaN
103	8	96	89	kitchen	sun_agzzivivdpnawacl.tif	1378516.633559	1378516.892145	1378517.573886	7.924828e-01	79	none	NaN	NaN
103	8	97	91	kitchen	sun_ahljzhgcdpomplvg.tif	1378518.343584	1378518.602168	1378519.283958	6.673539e-01	81	none	NaN	NaN
103	8	98	99	kitchen	sun_akcjzhbbjlbogpdi.tif	1378520.053606	1378520.312197	1378520.993946	6.506701e-01	89	none	NaN	NaN
103	8	99	68	kitchen	sun_aaxxjlsuzvqlgylf.tif	1378521.763634	1378522.022225	1378522.703983	6.756958e-01	58	none	NaN	NaN
103	8	100	69	kitchen	sun_abdenxonkemggwsq.tif	1378523.473660	1378523.732251	1378524.414031	6.506701e-01	59	none	NaN	NaN
103	9	1	11	bathroom	labelme_sfxiulhjbhlyiyt.tif	1378655.020603	1378655.279190	1378655.927656	7.757989e-01	1	none	NaN	NaN
103	9	2	24	bathroom	sun_agrwbmhcpmfuwmsg.tif	1378656.697259	1378656.955853	1378657.604279	8.508762e-01	14	none	NaN	NaN
103	9	3	60	bathroom	sun_azqyogdvyhahyram.tif	1378658.373918	1378658.632505	1378659.281035	7.007216e-01	50	none	NaN	NaN
103	9	4	19	bathroom	sun_aclfzgynxzxlbepz.tif	1378660.050583	1378660.309169	1378660.957700	7.924828e-01	9	none	NaN	NaN
103	9	5	14	bathroom	sun_abapwbhyhkfixyex.tif	1378661.727237	1378661.985832	1378662.634356	8.175086e-01	4	none	NaN	NaN
103	9	6	15	bathroom	sun_abjtwfukuwddzted.tif	1378663.403901	1378663.662489	1378664.310933	6.923797e-01	5	39	1378665.144039	1
103	9	7	21	bathroom	sun_aggnnqpdorgxpvce.tif	1378665.914719	1378666.173314	1378666.821750	7.507732e-01	11	none	NaN	NaN
103	9	8	38	bathroom	sun_anhioqovhscjqqwb.tif	1378667.591383	1378667.849973	1378668.498390	6.506701e-01	28	none	NaN	NaN
103	9	9	44	bathroom	sun_apkruvsevgegsdwp.tif	1378669.268039	1378669.526629	1378670.175156	6.590120e-01	34	none	NaN	NaN
103	9	10	56	bathroom	sun_awnqiikzaispgmwo.tif	1378670.944697	1378671.203290	1378671.851631	6.590120e-01	46	none	NaN	NaN
103	9	11	16	bathroom	sun_acduarbnmmoglmiv.tif	1378672.621360	1378672.879949	1378673.528491	8.258505e-01	6	none	NaN	NaN
103	9	12	45	bathroom	sun_apkxzenqapsujocq.tif	1378674.298021	1378674.556613	1378675.205135	8.008247e-01	35	none	NaN	NaN
103	9	13	18	bathroom	sun_acgyywnybuveqsro.tif	1378675.974687	1378676.233275	1378676.881629	8.425343e-01	8	none	NaN	NaN
103	9	14	20	bathroom	sun_afcoljnjfoxjtgja.tif	1378677.651339	1378677.909929	1378678.558388	7.757989e-01	10	39	1378793.104038	0
103	9	15	49	bathroom	sun_asfwthctfqerjvxr.tif	1378793.874769	1378794.133361	1378794.781853	8.091666e-01	39	none	NaN	NaN
103	9	16	31	bathroom	sun_akiytfaagpdsphgz.tif	1378795.551431	1378795.810018	1378796.458402	7.591151e-01	21	none	NaN	NaN
103	9	17	17	bathroom	sun_acegryoqftbzowsg.tif	1378797.228098	1378797.486678	1378798.135117	7.424312e-01	7	none	NaN	NaN
103	9	18	54	bathroom	sun_auzqhkafidnkrwmo.tif	1378798.904748	1378799.163341	1378799.811864	8.508762e-01	44	none	NaN	NaN
103	9	19	50	bathroom	sun_aspsyogrekjtfozg.tif	1378800.581414	1378800.840009	1378801.488538	8.175086e-01	40	none	NaN	NaN
103	9	20	34	bathroom	sun_alkosphxlxwjwgjd.tif	1378802.258074	1378802.516661	1378803.165108	7.340893e-01	24	37	1378803.895731	1
103	9	21	53	bathroom	sun_ausgutylgojavyoq.tif	1378804.668792	1378804.927384	1378805.575753	6.840378e-01	43	none	NaN	NaN
103	9	22	13	bathroom	sun_aavhrsfjbserjtht.tif	1378806.345454	1378806.604041	1378807.252567	6.673539e-01	3	none	NaN	NaN
103	9	23	52	bathroom	sun_aunuadmjocsddsrl.tif	1378808.022115	1378808.280705	1378808.929134	6.506701e-01	42	none	NaN	NaN
103	9	24	12	bathroom	sun_aapitsgbtktqubfy.tif	1378809.698776	1378809.957363	1378810.605920	7.591151e-01	2	none	NaN	NaN
103	9	25	39	bathroom	sun_anryaplzeujmzfkd.tif	1378811.375435	1378811.634030	1378812.282523	7.340893e-01	29	none	NaN	NaN
103	9	26	29	bathroom	sun_ahqjwnzgolcaoidx.tif	1378813.052098	1378813.310681	1378813.959131	7.090635e-01	19	none	NaN	NaN
103	9	27	26	bathroom	sun_ahaulkltgpkeeemi.tif	1378814.728757	1378814.987343	1378815.635695	6.673539e-01	16	37	1378816.600081	1
103	9	28	51	bathroom	sun_atstyziqcmkahyxk.tif	1378817.373042	1378817.631626	1378818.280157	7.090635e-01	41	none	NaN	NaN
