subject	block	trial	texture	category	image	trialOnset	itiOnset	trialEnd	iti	EEGtrigger	responseKey	responseTime	accuracy
 140	1	1	13	bathroom	sun_aavhrsfjbserjtht.tif	1290616.340282	1290616.598865	1290617.339180	7.507278e-01	3	none	NaN	NaN
 140	1	2	49	bathroom	sun_asfwthctfqerjvxr.tif	1290618.108698	1290618.367288	1290619.107353	8.424834e-01	39	none	NaN	NaN
 140	1	3	25	bathroom	sun_agyqfjcfkdcydepw.tif	1290619.877118	1290620.135704	1290620.875784	6.589722e-01	15	37	1290623.344245	0
 140	1	4	38	bathroom	sun_anhioqovhscjqqwb.tif	1290624.122983	1290624.381572	1290625.121727	7.840935e-01	28	none	NaN	NaN
 140	1	5	37	bathroom	sun_amzlamotzwfkwjco.tif	1290625.891421	1290626.149992	1290626.890085	7.173621e-01	27	none	NaN	NaN
 140	1	6	16	bathroom	sun_acduarbnmmoglmiv.tif	1290627.659815	1290627.918406	1290628.658613	6.923379e-01	6	none	NaN	NaN
 140	1	7	41	bathroom	sun_aoybiabnpadelefl.tif	1290629.428234	1290629.686826	1290630.426913	6.923379e-01	31	37	1290633.408111	0
 140	1	8	55	bathroom	sun_avhrdrntsqrjzccq.tif	1290634.182945	1290634.441532	1290635.181771	6.923379e-01	45	none	NaN	NaN
 140	1	9	60	bathroom	sun_azqyogdvyhahyram.tif	1290635.951357	1290636.209942	1290636.950202	7.423864e-01	50	37	1290639.808054	1
 140	1	10	29	bathroom	sun_ahqjwnzgolcaoidx.tif	1290640.580940	1290640.839532	1290641.579621	7.340450e-01	19	none	NaN	NaN
 140	1	11	15	bathroom	sun_abjtwfukuwddzted.tif	1290642.349358	1290642.607946	1290643.348056	8.341420e-01	5	37	1290645.264005	1
 140	1	12	39	bathroom	sun_anryaplzeujmzfkd.tif	1290646.036338	1290646.294928	1290647.035116	6.756550e-01	29	none	NaN	NaN
 140	1	13	17	bathroom	sun_acegryoqftbzowsg.tif	1290647.804761	1290648.063347	1290648.803616	8.091177e-01	7	none	NaN	NaN
 140	1	14	30	bathroom	sun_ajlawzvmubibwbpy.tif	1290649.573175	1290649.831766	1290650.571888	8.174592e-01	20	none	NaN	NaN
 140	1	15	23	bathroom	sun_aghyqhbptboemmoq.tif	1290651.341596	1290651.600187	1290652.340403	7.840935e-01	13	none	NaN	NaN
 140	1	16	53	bathroom	sun_ausgutylgojavyoq.tif	1290653.110009	1290653.368599	1290654.108686	7.507278e-01	43	none	NaN	NaN
 140	1	17	59	bathroom	sun_axyrejkiiaqiurjk.tif	1290654.878421	1290655.137016	1290655.877128	7.423864e-01	49	none	NaN	NaN
 140	1	18	58	bathroom	sun_axxbkopsgyouuebh.tif	1290656.646845	1290656.905428	1290657.645580	7.340450e-01	48	none	NaN	NaN
 140	1	19	14	bathroom	sun_abapwbhyhkfixyex.tif	1290658.415258	1290658.673849	1290659.414061	7.090207e-01	4	none	NaN	NaN
 140	1	20	33	bathroom	sun_aljolscmmzydegqp.tif	1290660.183678	1290660.442260	1290661.182341	6.923379e-01	23	none	NaN	NaN
 140	1	21	46	bathroom	sun_apmqjbnwghzuhhzh.tif	1290661.952089	1290662.210679	1290662.950812	7.340450e-01	36	37	1290667.880161	0
 140	1	22	18	bathroom	sun_acgyywnybuveqsro.tif	1290668.650388	1290668.908984	1290669.649055	6.756550e-01	8	none	NaN	NaN
 140	1	23	19	bathroom	sun_aclfzgynxzxlbepz.tif	1290670.418809	1290670.677394	1290671.417486	7.757521e-01	9	none	NaN	NaN
 140	1	24	11	bathroom	labelme_sfxiulhjbhlyiyt.tif	1290672.187221	1290672.445815	1290673.186036	6.673136e-01	1	37	1290675.407771	0
 140	1	25	27	bathroom	sun_ahcvzmoyaycdoftf.tif	1290676.182850	1290676.441432	1290677.181721	8.258006e-01	17	none	NaN	NaN
 140	1	26	21	bathroom	sun_aggnnqpdorgxpvce.tif	1290677.951261	1290678.209851	1290678.950101	7.590692e-01	11	none	NaN	NaN
 140	1	27	42	bathroom	sun_apeeialkgkuxddgh.tif	1290679.719679	1290679.978266	1290680.718445	7.590692e-01	32	none	NaN	NaN
 140	1	28	56	bathroom	sun_awnqiikzaispgmwo.tif	1290681.488098	1290681.746683	1290682.486812	8.174592e-01	46	none	NaN	NaN
 140	1	29	44	bathroom	sun_apkruvsevgegsdwp.tif	1290683.256509	1290683.515101	1290684.255255	7.423864e-01	34	none	NaN	NaN
 140	1	30	20	bathroom	sun_afcoljnjfoxjtgja.tif	1290685.024930	1290685.283512	1290686.023583	7.173621e-01	10	none	NaN	NaN
 140	1	31	28	bathroom	sun_ahijqszoswveeyji.tif	1290686.793347	1290687.051938	1290687.792000	8.424834e-01	18	none	NaN	NaN
 140	1	32	26	bathroom	sun_ahaulkltgpkeeemi.tif	1290688.561764	1290688.820355	1290689.560444	7.674106e-01	16	none	NaN	NaN
 140	1	33	22	bathroom	sun_agguqiubmwhqqunb.tif	1290690.330178	1290690.588765	1290691.328943	6.923379e-01	12	none	NaN	NaN
 140	1	34	47	bathroom	sun_apynckhmoftszqoq.tif	1290692.098598	1290692.357186	1290693.097302	7.590692e-01	37	none	NaN	NaN
 140	1	35	45	bathroom	sun_apkxzenqapsujocq.tif	1290693.867009	1290694.125607	1290694.865822	8.174592e-01	35	none	NaN	NaN
 140	1	36	34	bathroom	sun_alkosphxlxwjwgjd.tif	1290695.635433	1290695.894016	1290696.634190	8.341420e-01	24	none	NaN	NaN
 140	1	37	12	bathroom	sun_aapitsgbtktqubfy.tif	1290697.403846	1290697.662439	1290698.402577	8.091177e-01	2	none	NaN	NaN
 140	1	38	52	bathroom	sun_aunuadmjocsddsrl.tif	1290699.172260	1290699.430853	1290700.171098	7.090207e-01	42	none	NaN	NaN
 140	1	39	50	bathroom	sun_aspsyogrekjtfozg.tif	1290700.940678	1290701.199270	1290701.939454	7.924349e-01	40	none	NaN	NaN
 140	1	40	54	bathroom	sun_auzqhkafidnkrwmo.tif	1290702.709098	1290702.967690	1290703.707945	6.506308e-01	44	none	NaN	NaN
 140	1	41	31	bathroom	sun_akiytfaagpdsphgz.tif	1290704.477514	1290704.736101	1290705.476256	6.589722e-01	21	39	1290709.080163	1
 140	1	42	48	bathroom	sun_aqrpegblszgcoujh.tif	1290709.857837	1290710.116426	1290710.856614	8.091177e-01	38	none	NaN	NaN
 140	1	43	35	bathroom	sun_alotolagknyrgtsk.tif	1290711.626259	1290711.884845	1290712.625117	8.007763e-01	25	none	NaN	NaN
 140	1	44	24	bathroom	sun_agrwbmhcpmfuwmsg.tif	1290713.394673	1290713.653262	1290714.393401	7.257035e-01	14	none	NaN	NaN
 140	1	45	40	bathroom	sun_aofnryafpsjimzsb.tif	1290715.163090	1290715.421680	1290716.161906	7.840935e-01	30	none	NaN	NaN
 140	1	46	36	bathroom	sun_ambriybtogmepttm.tif	1290716.931509	1290717.190093	1290717.930156	7.757521e-01	26	none	NaN	NaN
 140	1	47	57	bathroom	sun_axldvoqbuvuggfmq.tif	1290718.699926	1290718.958516	1290719.698705	8.258006e-01	47	none	NaN	NaN
 140	1	48	43	bathroom	sun_apjevzvycyhuqghb.tif	1290720.468340	1290720.726930	1290721.467105	6.506308e-01	33	none	NaN	NaN
 140	1	49	32	bathroom	sun_aleqenyvunhactkl.tif	1290722.236752	1290722.495344	1290723.235573	7.006793e-01	22	none	NaN	NaN
 140	1	50	51	bathroom	sun_atstyziqcmkahyxk.tif	1290724.005177	1290724.263765	1290725.004043	8.007763e-01	41	none	NaN	NaN
 140	1	51	59	bathroom	sun_axyrejkiiaqiurjk.tif	1290725.773591	1290726.032179	1290726.772352	7.006793e-01	49	none	NaN	NaN
 140	1	52	11	bathroom	labelme_sfxiulhjbhlyiyt.tif	1290727.542011	1290727.800601	1290728.540787	7.340450e-01	1	none	NaN	NaN
 140	1	53	25	bathroom	sun_agyqfjcfkdcydepw.tif	1290729.310422	1290729.569014	1290730.309253	7.507278e-01	15	none	NaN	NaN
 140	1	54	16	bathroom	sun_acduarbnmmoglmiv.tif	1290731.078843	1290731.337431	1290732.077507	7.173621e-01	6	none	NaN	NaN
 140	1	55	21	bathroom	sun_aggnnqpdorgxpvce.tif	1290732.847260	1290733.105846	1290733.845909	7.590692e-01	11	none	NaN	NaN
 140	1	56	51	bathroom	sun_atstyziqcmkahyxk.tif	1290734.615675	1290734.874271	1290735.614336	7.924349e-01	41	none	NaN	NaN
 140	1	57	32	bathroom	sun_aleqenyvunhactkl.tif	1290736.384090	1290736.642681	1290737.382810	7.924349e-01	22	none	NaN	NaN
 140	1	58	33	bathroom	sun_aljolscmmzydegqp.tif	1290738.152503	1290738.411100	1290739.151199	7.674106e-01	23	none	NaN	NaN
 140	1	59	18	bathroom	sun_acgyywnybuveqsro.tif	1290739.920923	1290740.179514	1290740.919690	7.090207e-01	8	none	NaN	NaN
 140	1	60	36	bathroom	sun_ambriybtogmepttm.tif	1290741.689343	1290741.947927	1290742.688041	7.840935e-01	26	none	NaN	NaN
 140	1	61	13	bathroom	sun_aavhrsfjbserjtht.tif	1290743.457763	1290743.716347	1290744.456516	8.508248e-01	3	none	NaN	NaN
 140	1	62	56	bathroom	sun_awnqiikzaispgmwo.tif	1290745.226173	1290745.484771	1290746.225036	7.757521e-01	46	37	1290748.519734	0
 140	1	63	14	bathroom	sun_abapwbhyhkfixyex.tif	1290749.296872	1290749.555468	1290750.295674	6.589722e-01	4	none	NaN	NaN
 140	1	64	45	bathroom	sun_apkxzenqapsujocq.tif	1290751.065290	1290751.323879	1290752.064033	8.091177e-01	35	none	NaN	NaN
 140	1	65	38	bathroom	sun_anhioqovhscjqqwb.tif	1290752.833706	1290753.092291	1290753.832372	8.258006e-01	28	37	1290756.336127	1
 140	1	66	44	bathroom	sun_apkruvsevgegsdwp.tif	1290757.112937	1290757.371530	1290758.111764	8.007763e-01	34	37	1290760.095736	1
 140	1	67	35	bathroom	sun_alotolagknyrgtsk.tif	1290760.866656	1290761.125248	1290761.865357	6.673136e-01	25	none	NaN	NaN
 140	1	68	55	bathroom	sun_avhrdrntsqrjzccq.tif	1290762.635070	1290762.893662	1290763.633897	6.756550e-01	45	37	1290765.719988	0
 140	1	69	22	bathroom	sun_agguqiubmwhqqunb.tif	1290766.497228	1290766.755819	1290767.496057	6.839964e-01	12	none	NaN	NaN
 140	1	70	24	bathroom	sun_agrwbmhcpmfuwmsg.tif	1290768.265644	1290768.524187	1290769.264301	7.423864e-01	14	none	NaN	NaN
 140	1	71	47	bathroom	sun_apynckhmoftszqoq.tif	1290770.034062	1290770.292655	1290771.032774	8.341420e-01	37	none	NaN	NaN
 140	1	72	53	bathroom	sun_ausgutylgojavyoq.tif	1290771.802478	1290772.061067	1290772.801201	7.590692e-01	43	none	NaN	NaN
 140	1	73	15	bathroom	sun_abjtwfukuwddzted.tif	1290773.570895	1290773.829484	1290774.569560	8.007763e-01	5	none	NaN	NaN
 140	1	74	28	bathroom	sun_ahijqszoswveeyji.tif	1290775.339312	1290775.597903	1290776.338098	7.257035e-01	18	none	NaN	NaN
 140	1	75	26	bathroom	sun_ahaulkltgpkeeemi.tif	1290777.107728	1290777.366321	1290778.106515	8.174592e-01	16	37	1290779.624093	1
 140	1	76	58	bathroom	sun_axxbkopsgyouuebh.tif	1290780.394315	1290780.652906	1290781.392991	6.839964e-01	48	none	NaN	NaN
 140	1	77	17	bathroom	sun_acegryoqftbzowsg.tif	1290782.162727	1290782.421322	1290783.161387	6.839964e-01	7	37	1290784.375971	1
 140	1	78	54	bathroom	sun_auzqhkafidnkrwmo.tif	1290785.149022	1290785.407611	1290786.147750	8.341420e-01	44	none	NaN	NaN
 140	1	79	30	bathroom	sun_ajlawzvmubibwbpy.tif	1290786.917438	1290787.176025	1290787.916198	7.173621e-01	20	none	NaN	NaN
 140	1	80	19	bathroom	sun_aclfzgynxzxlbepz.tif	1290788.685854	1290788.944446	1290789.684715	8.258006e-01	9	none	NaN	NaN
 140	1	81	60	bathroom	sun_azqyogdvyhahyram.tif	1290790.454270	1290790.712855	1290791.452949	7.257035e-01	50	none	NaN	NaN
 140	1	82	50	bathroom	sun_aspsyogrekjtfozg.tif	1290792.222689	1290792.481276	1290793.221503	7.757521e-01	40	none	NaN	NaN
 140	1	83	42	bathroom	sun_apeeialkgkuxddgh.tif	1290793.991103	1290794.249693	1290794.989828	7.006793e-01	32	none	NaN	NaN
 140	1	84	49	bathroom	sun_asfwthctfqerjvxr.tif	1290795.759524	1290796.018104	1290796.758262	7.674106e-01	39	none	NaN	NaN
 140	1	85	27	bathroom	sun_ahcvzmoyaycdoftf.tif	1290797.527938	1290797.786525	1290798.526683	7.006793e-01	17	none	NaN	NaN
 140	1	86	12	bathroom	sun_aapitsgbtktqubfy.tif	1290799.296355	1290799.554938	1290800.295027	7.257035e-01	2	none	NaN	NaN
 140	1	87	23	bathroom	sun_aghyqhbptboemmoq.tif	1290801.064775	1290801.323360	1290802.063554	6.506308e-01	13	39	1290804.215965	1
 140	1	88	20	bathroom	sun_afcoljnjfoxjtgja.tif	1290804.993654	1290805.252240	1290805.992514	8.424834e-01	10	none	NaN	NaN
 140	1	89	40	bathroom	sun_aofnryafpsjimzsb.tif	1290806.762076	1290807.020667	1290807.760729	6.589722e-01	30	none	NaN	NaN
 140	1	90	39	bathroom	sun_anryaplzeujmzfkd.tif	1290808.522151	1290808.780745	1290809.520963	6.839964e-01	29	none	NaN	NaN
 140	1	91	43	bathroom	sun_apjevzvycyhuqghb.tif	1290810.290572	1290810.549156	1290811.289438	8.258006e-01	33	none	NaN	NaN
 140	1	92	34	bathroom	sun_alkosphxlxwjwgjd.tif	1290812.058985	1290812.317575	1290813.057692	6.673136e-01	24	none	NaN	NaN
 140	1	93	41	bathroom	sun_aoybiabnpadelefl.tif	1290813.827397	1290814.085992	1290814.826176	8.424834e-01	31	none	NaN	NaN
 140	1	94	46	bathroom	sun_apmqjbnwghzuhhzh.tif	1290815.595828	1290815.854432	1290816.594674	6.756550e-01	36	none	NaN	NaN
 140	1	95	57	bathroom	sun_axldvoqbuvuggfmq.tif	1290817.364235	1290817.622822	1290818.362981	8.508248e-01	47	none	NaN	NaN
 140	1	96	31	bathroom	sun_akiytfaagpdsphgz.tif	1290819.132649	1290819.391240	1290820.131449	7.507278e-01	21	37	1290821.855697	1
 140	1	97	37	bathroom	sun_amzlamotzwfkwjco.tif	1290822.627777	1290822.886369	1290823.626472	7.090207e-01	27	none	NaN	NaN
 140	1	98	29	bathroom	sun_ahqjwnzgolcaoidx.tif	1290824.387853	1290824.646441	1290825.386629	7.674106e-01	19	none	NaN	NaN
 140	1	99	52	bathroom	sun_aunuadmjocsddsrl.tif	1290826.156271	1290826.414868	1290827.155018	7.924349e-01	42	none	NaN	NaN
 140	1	100	48	bathroom	sun_aqrpegblszgcoujh.tif	1290827.924682	1290828.183275	1290828.923460	6.673136e-01	38	none	NaN	NaN
 140	2	1	62	kitchen	labelme_kxvouciolcpqplr.tif	1290836.141152	1290836.399740	1290837.089936	8.258006e-01	52	none	NaN	NaN
 140	2	2	82	kitchen	sun_aenotlpyftoioydp.tif	1290837.859516	1290838.118105	1290838.808220	7.006793e-01	72	none	NaN	NaN
 140	2	3	80	kitchen	sun_aegoxogugdkwpmpj.tif	1290839.569543	1290839.828150	1290840.518224	8.258006e-01	70	none	NaN	NaN
 140	2	4	84	kitchen	sun_aexklacwqwezaorf.tif	1290841.287913	1290841.546500	1290842.236639	7.507278e-01	74	none	NaN	NaN
 140	2	5	88	kitchen	sun_agubuxuukhzyzpdp.tif	1290843.006279	1290843.264865	1290843.954929	7.423864e-01	78	none	NaN	NaN
 140	2	6	85	kitchen	sun_afuyedyxivkhecmu.tif	1290844.724644	1290844.983238	1290845.673346	7.924349e-01	75	37	1290847.031666	1
 140	2	7	73	kitchen	sun_abrcnpqqhmjwekyf.tif	1290847.802687	1290848.061280	1290848.751488	7.590692e-01	63	none	NaN	NaN
 140	2	8	99	kitchen	sun_akcjzhbbjlbogpdi.tif	1290849.521054	1290849.779649	1290850.469778	7.257035e-01	89	none	NaN	NaN
 140	2	9	75	kitchen	sun_acgtpgfybqjmzeyw.tif	1290851.239426	1290851.498017	1290852.188208	7.590692e-01	65	none	NaN	NaN
 140	2	10	92	kitchen	sun_ahpczsiumwwocjkv.tif	1290852.957796	1290853.216384	1290853.906466	7.590692e-01	82	none	NaN	NaN
 140	2	11	67	kitchen	sun_aarfiyshqohlwkmo.tif	1290854.676157	1290854.934746	1290855.624899	7.507278e-01	57	37	1290856.663650	1
 140	2	12	89	kitchen	sun_agzzivivdpnawacl.tif	1290857.437225	1290857.695815	1290858.385996	7.090207e-01	79	none	NaN	NaN
 140	2	13	87	kitchen	sun_agorklincwxrdtga.tif	1290859.155594	1290859.414192	1290860.104256	8.341420e-01	77	none	NaN	NaN
 140	2	14	70	kitchen	sun_abdxkyyxwfskuaqb.tif	1290860.873964	1290861.132550	1290861.822749	7.006793e-01	60	none	NaN	NaN
 140	2	15	69	kitchen	sun_abdenxonkemggwsq.tif	1290862.592328	1290862.850915	1290863.541105	6.506308e-01	59	none	NaN	NaN
 140	2	16	66	kitchen	sun_aapllqyqlykszopd.tif	1290864.310694	1290864.569281	1290865.259328	7.340450e-01	56	37	1290869.023866	0
 140	2	17	104	kitchen	sun_auticobqsbwgoppi.tif	1290869.799459	1290870.058046	1290870.748270	8.007763e-01	94	none	NaN	NaN
 140	2	18	90	kitchen	sun_ahdycvpopffkzzsu.tif	1290871.517827	1290871.776418	1290872.466520	6.839964e-01	80	none	NaN	NaN
 140	2	19	96	kitchen	sun_ajcbwwvdlsvjyzje.tif	1290873.236194	1290873.494783	1290874.184873	6.923379e-01	86	none	NaN	NaN
 140	2	20	65	kitchen	sun_aamedkxepzlwuxes.tif	1290874.954560	1290875.213151	1290875.903220	7.090207e-01	55	none	NaN	NaN
 140	2	21	106	kitchen	sun_awcpdzzznmweyyhv.tif	1290876.672925	1290876.931518	1290877.621584	7.674106e-01	96	none	NaN	NaN
 140	2	22	83	kitchen	sun_aeqdocilnnpuvuhx.tif	1290878.391291	1290878.649883	1290879.339921	8.424834e-01	73	none	NaN	NaN
 140	2	23	64	kitchen	sun_aadbddgrdsjugojn.tif	1290880.109661	1290880.368253	1290881.058282	7.840935e-01	54	none	NaN	NaN
 140	2	24	61	kitchen	labelme_brsyyvweiuaazfr.tif	1290881.828027	1290882.086618	1290882.776680	7.173621e-01	51	none	NaN	NaN
 140	2	25	107	kitchen	sun_axyyrmzcupyhlivc.tif	1290883.546400	1290883.804982	1290884.495082	7.340450e-01	97	none	NaN	NaN
 140	2	26	91	kitchen	sun_ahljzhgcdpomplvg.tif	1290885.264765	1290885.523349	1290886.213500	6.589722e-01	81	none	NaN	NaN
 140	2	27	94	kitchen	sun_ahywdevtimnqcsln.tif	1290886.983128	1290887.241719	1290887.931838	7.507278e-01	84	none	NaN	NaN
 140	2	28	78	kitchen	sun_adgqasybjyktddhj.tif	1290888.701498	1290888.960090	1290889.650129	7.257035e-01	68	none	NaN	NaN
 140	2	29	102	kitchen	sun_auaiucuqpdausiva.tif	1290890.419865	1290890.678453	1290891.368502	6.923379e-01	92	none	NaN	NaN
 140	2	30	95	kitchen	sun_aixorpehvfykdynp.tif	1290892.138228	1290892.396821	1290893.086949	6.673136e-01	85	none	NaN	NaN
 140	2	31	81	kitchen	sun_aehawpgmrlhlvcow.tif	1290893.856598	1290894.115185	1290894.805425	7.006793e-01	71	39	1290898.943948	1
 140	2	32	74	kitchen	sun_acfmftudsenhrfhy.tif	1290899.720768	1290899.979326	1290900.669505	8.341420e-01	64	37	1290902.327780	1
 140	2	33	72	kitchen	sun_abpwyqmlzafvklqo.tif	1290903.099080	1290903.357675	1290904.047731	7.090207e-01	62	none	NaN	NaN
 140	2	34	109	kitchen	sun_aypmqwcualkenuoe.tif	1290904.817447	1290905.076035	1290905.766147	7.173621e-01	99	37	1290907.024024	1
 140	2	35	63	kitchen	labelme_rykdqxenmhulbdn.tif	1290907.795394	1290908.053982	1290908.744012	7.757521e-01	53	none	NaN	NaN
 140	2	36	105	kitchen	sun_avszsnwsbuqfgzbn.tif	1290909.513762	1290909.772354	1290910.462432	7.090207e-01	95	none	NaN	NaN
 140	2	37	98	kitchen	sun_akchetnepxlcxhsu.tif	1290911.232127	1290911.490711	1290912.180827	8.091177e-01	88	none	NaN	NaN
 140	2	38	86	kitchen	sun_aggjlwcdjsjcaemh.tif	1290912.950496	1290913.209086	1290913.899546	6.673136e-01	76	none	NaN	NaN
 140	2	39	68	kitchen	sun_aaxxjlsuzvqlgylf.tif	1290914.668862	1290914.927450	1290915.617522	7.590692e-01	58	none	NaN	NaN
 140	2	40	71	kitchen	sun_abftihopvusyfakt.tif	1290916.387226	1290916.645819	1290917.336039	8.424834e-01	61	none	NaN	NaN
 140	2	41	93	kitchen	sun_ahspylgoovwmwvgk.tif	1290918.105595	1290918.364184	1290919.054360	7.674106e-01	83	39	1290920.855830	1
 140	2	42	100	kitchen	sun_amjjdeyrggfqgmom.tif	1290921.634086	1290921.892671	1290922.582882	8.174592e-01	90	none	NaN	NaN
 140	2	43	108	kitchen	sun_aymvwlarqodbwuoc.tif	1290923.352451	1290923.611041	1290924.301085	6.756550e-01	98	none	NaN	NaN
 140	2	44	76	kitchen	sun_acwjdupvyjsugpay.tif	1290925.070822	1290925.329417	1290926.019564	7.840935e-01	66	none	NaN	NaN
 140	2	45	97	kitchen	sun_ajkqhtgcbgpcwrwn.tif	1290926.789189	1290927.047775	1290927.737916	7.757521e-01	87	none	NaN	NaN
 140	2	46	79	kitchen	sun_admlmbcdswaszruo.tif	1290928.507556	1290928.766147	1290929.456294	8.258006e-01	69	none	NaN	NaN
 140	2	47	77	kitchen	sun_acxkpeoqbwcxfvip.tif	1290930.225926	1290930.484512	1290931.174599	7.924349e-01	67	none	NaN	NaN
 140	2	48	103	kitchen	sun_aunzlwrbjumxhwdj.tif	1290931.944291	1290932.202879	1290932.893061	7.840935e-01	93	none	NaN	NaN
 140	2	49	110	kitchen	sun_azmutvzbxypaceni.tif	1290933.662656	1290933.921246	1290934.611310	8.007763e-01	100	none	NaN	NaN
 140	2	50	101	kitchen	sun_aqeaevwwwjoqhzvl.tif	1290935.381022	1290935.639618	1290936.329823	7.173621e-01	91	none	NaN	NaN
 140	2	51	88	kitchen	sun_agubuxuukhzyzpdp.tif	1290937.099393	1290937.357981	1290938.048212	8.174592e-01	78	none	NaN	NaN
 140	2	52	92	kitchen	sun_ahpczsiumwwocjkv.tif	1290938.817759	1290939.076352	1290939.766420	6.923379e-01	82	39	1290943.775803	1
 140	2	53	66	kitchen	sun_aapllqyqlykszopd.tif	1290944.548426	1290944.807022	1290945.497237	8.091177e-01	56	none	NaN	NaN
 140	2	54	102	kitchen	sun_auaiucuqpdausiva.tif	1290946.266797	1290946.525386	1290947.215413	7.924349e-01	92	37	1290948.335773	1
 140	2	55	78	kitchen	sun_adgqasybjyktddhj.tif	1290949.111284	1290949.369868	1290950.060078	7.924349e-01	68	none	NaN	NaN
 140	2	56	68	kitchen	sun_aaxxjlsuzvqlgylf.tif	1290950.829649	1290951.088239	1290951.778439	6.756550e-01	58	none	NaN	NaN
 140	2	57	62	kitchen	labelme_kxvouciolcpqplr.tif	1290952.548017	1290952.806605	1290953.496663	6.589722e-01	52	none	NaN	NaN
 140	2	58	100	kitchen	sun_amjjdeyrggfqgmom.tif	1290954.266380	1290954.524970	1290955.215053	6.923379e-01	90	none	NaN	NaN
 140	2	59	74	kitchen	sun_acfmftudsenhrfhy.tif	1290955.984752	1290956.243338	1290956.933392	7.173621e-01	64	none	NaN	NaN
 140	2	60	109	kitchen	sun_aypmqwcualkenuoe.tif	1290957.703115	1290957.961708	1290958.651921	8.424834e-01	99	none	NaN	NaN
 140	2	61	105	kitchen	sun_avszsnwsbuqfgzbn.tif	1290959.421487	1290959.680070	1290960.370254	7.590692e-01	95	none	NaN	NaN
 140	2	62	67	kitchen	sun_aarfiyshqohlwkmo.tif	1290961.139846	1290961.398441	1290962.088456	6.839964e-01	57	none	NaN	NaN
 140	2	63	83	kitchen	sun_aeqdocilnnpuvuhx.tif	1290962.858216	1290963.116810	1290963.806977	6.673136e-01	73	none	NaN	NaN
 140	2	64	90	kitchen	sun_ahdycvpopffkzzsu.tif	1290964.576579	1290964.835171	1290965.525305	6.756550e-01	80	none	NaN	NaN
 140	2	65	75	kitchen	sun_acgtpgfybqjmzeyw.tif	1290966.294952	1290966.553534	1290967.243735	7.757521e-01	65	none	NaN	NaN
 140	2	66	101	kitchen	sun_aqeaevwwwjoqhzvl.tif	1290968.013321	1290968.271908	1290968.962101	7.757521e-01	91	none	NaN	NaN
 140	2	67	82	kitchen	sun_aenotlpyftoioydp.tif	1290969.731686	1290969.990272	1290970.680439	6.839964e-01	72	37	1290973.991720	0
 140	2	68	97	kitchen	sun_ajkqhtgcbgpcwrwn.tif	1290974.770007	1290975.028594	1290975.718788	7.006793e-01	87	none	NaN	NaN
 140	2	69	77	kitchen	sun_acxkpeoqbwcxfvip.tif	1290976.488377	1290976.746961	1290977.437045	7.340450e-01	67	none	NaN	NaN
 140	2	70	63	kitchen	labelme_rykdqxenmhulbdn.tif	1290978.206734	1290978.465330	1290979.155420	7.423864e-01	53	none	NaN	NaN
 140	2	71	87	kitchen	sun_agorklincwxrdtga.tif	1290979.925111	1290980.183694	1290980.873808	8.341420e-01	77	none	NaN	NaN
 140	2	72	84	kitchen	sun_aexklacwqwezaorf.tif	1290981.643475	1290981.902067	1290982.592129	7.674106e-01	74	none	NaN	NaN
 140	2	73	94	kitchen	sun_ahywdevtimnqcsln.tif	1290983.361838	1290983.620432	1290984.310558	6.923379e-01	84	37	1290985.535569	1
 140	2	74	65	kitchen	sun_aamedkxepzlwuxes.tif	1290986.306424	1290986.565010	1290987.255218	8.508248e-01	55	none	NaN	NaN
 140	2	75	96	kitchen	sun_ajcbwwvdlsvjyzje.tif	1290988.024788	1290988.283381	1290988.973444	7.507278e-01	86	39	1290993.335760	1
 140	2	76	106	kitchen	sun_awcpdzzznmweyyhv.tif	1290994.114145	1290994.372737	1290995.062840	8.007763e-01	96	none	NaN	NaN
 140	2	77	80	kitchen	sun_aegoxogugdkwpmpj.tif	1290995.832516	1290996.091107	1290996.781159	8.258006e-01	70	37	1290997.863774	1
 140	2	78	95	kitchen	sun_aixorpehvfykdynp.tif	1290998.635291	1290998.893880	1290999.584037	7.423864e-01	85	none	NaN	NaN
 140	2	79	81	kitchen	sun_aehawpgmrlhlvcow.tif	1291000.353657	1291000.612241	1291001.302359	8.174592e-01	71	none	NaN	NaN
 140	2	80	76	kitchen	sun_acwjdupvyjsugpay.tif	1291002.072022	1291002.330609	1291003.020729	6.589722e-01	66	39	1291004.535929	1
 140	2	81	61	kitchen	labelme_brsyyvweiuaazfr.tif	1291005.308560	1291005.567147	1291006.257326	8.091177e-01	51	none	NaN	NaN
 140	2	82	98	kitchen	sun_akchetnepxlcxhsu.tif	1291007.026930	1291007.285514	1291007.975569	8.007763e-01	88	none	NaN	NaN
 140	2	83	91	kitchen	sun_ahljzhgcdpomplvg.tif	1291008.736955	1291008.995546	1291009.685714	6.506308e-01	81	none	NaN	NaN
 140	2	84	72	kitchen	sun_abpwyqmlzafvklqo.tif	1291010.455320	1291010.713909	1291011.404151	6.589722e-01	62	none	NaN	NaN
 140	2	85	107	kitchen	sun_axyyrmzcupyhlivc.tif	1291012.173690	1291012.432280	1291013.122447	7.423864e-01	97	39	1291015.031934	1
 140	2	86	104	kitchen	sun_auticobqsbwgoppi.tif	1291015.802280	1291016.060871	1291016.750892	6.839964e-01	94	none	NaN	NaN
 140	2	87	108	kitchen	sun_aymvwlarqodbwuoc.tif	1291017.520647	1291017.779230	1291018.469438	7.257035e-01	98	none	NaN	NaN
 140	2	88	93	kitchen	sun_ahspylgoovwmwvgk.tif	1291019.239014	1291019.497603	1291020.187685	8.258006e-01	83	none	NaN	NaN
 140	2	89	86	kitchen	sun_aggjlwcdjsjcaemh.tif	1291020.957370	1291021.215971	1291021.906052	8.174592e-01	76	none	NaN	NaN
 140	2	90	103	kitchen	sun_aunzlwrbjumxhwdj.tif	1291022.675745	1291022.934335	1291023.624581	6.506308e-01	93	none	NaN	NaN
 140	2	91	73	kitchen	sun_abrcnpqqhmjwekyf.tif	1291024.394114	1291024.652702	1291025.342808	7.340450e-01	63	none	NaN	NaN
 140	2	92	89	kitchen	sun_agzzivivdpnawacl.tif	1291026.112478	1291026.371068	1291027.061150	7.674106e-01	79	none	NaN	NaN
 140	2	93	71	kitchen	sun_abftihopvusyfakt.tif	1291027.830848	1291028.089435	1291028.779587	6.756550e-01	61	none	NaN	NaN
 140	2	94	85	kitchen	sun_afuyedyxivkhecmu.tif	1291029.549217	1291029.807803	1291030.497960	8.508248e-01	75	none	NaN	NaN
 140	2	95	64	kitchen	sun_aadbddgrdsjugojn.tif	1291031.267579	1291031.526173	1291032.216252	6.673136e-01	54	none	NaN	NaN
 140	2	96	110	kitchen	sun_azmutvzbxypaceni.tif	1291032.985952	1291033.244538	1291033.934568	8.424834e-01	100	none	NaN	NaN
 140	2	97	70	kitchen	sun_abdxkyyxwfskuaqb.tif	1291034.704315	1291034.962905	1291035.652981	8.341420e-01	60	none	NaN	NaN
 140	2	98	99	kitchen	sun_akcjzhbbjlbogpdi.tif	1291036.422683	1291036.681272	1291037.371472	7.840935e-01	89	none	NaN	NaN
 140	2	99	79	kitchen	sun_admlmbcdswaszruo.tif	1291038.141055	1291038.399638	1291039.089713	8.091177e-01	69	none	NaN	NaN
 140	2	100	69	kitchen	sun_abdenxonkemggwsq.tif	1291039.859420	1291040.118012	1291040.808181	7.257035e-01	59	none	NaN	NaN
 140	3	1	27	bathroom	sun_ahcvzmoyaycdoftf.tif	1291049.744204	1291050.002785	1291050.818045	8.258006e-01	17	none	NaN	NaN
 140	3	2	21	bathroom	sun_aggnnqpdorgxpvce.tif	1291051.587697	1291051.846285	1291052.661577	6.923379e-01	11	39	1291055.775793	1
 140	3	3	19	bathroom	sun_aclfzgynxzxlbepz.tif	1291056.550937	1291056.809520	1291057.624704	8.258006e-01	9	none	NaN	NaN
 140	3	4	46	bathroom	sun_apmqjbnwghzuhhzh.tif	1291058.394431	1291058.653016	1291059.468204	7.090207e-01	36	none	NaN	NaN
 140	3	5	17	bathroom	sun_acegryoqftbzowsg.tif	1291060.237919	1291060.496510	1291061.311808	8.424834e-01	7	none	NaN	NaN
 140	3	6	34	bathroom	sun_alkosphxlxwjwgjd.tif	1291062.081411	1291062.339999	1291063.155171	7.257035e-01	24	none	NaN	NaN
 140	3	7	18	bathroom	sun_acgyywnybuveqsro.tif	1291063.924902	1291064.183489	1291064.998811	7.090207e-01	8	none	NaN	NaN
 140	3	8	38	bathroom	sun_anhioqovhscjqqwb.tif	1291065.768394	1291066.026977	1291066.842266	6.756550e-01	28	none	NaN	NaN
 140	3	9	50	bathroom	sun_aspsyogrekjtfozg.tif	1291067.611882	1291067.870466	1291068.685629	8.424834e-01	40	none	NaN	NaN
 140	3	10	29	bathroom	sun_ahqjwnzgolcaoidx.tif	1291069.455372	1291069.713967	1291070.529114	7.090207e-01	19	37	1291071.895885	1
 140	3	11	53	bathroom	sun_ausgutylgojavyoq.tif	1291072.666883	1291072.925476	1291073.740617	6.589722e-01	43	none	NaN	NaN
 140	3	12	59	bathroom	sun_axyrejkiiaqiurjk.tif	1291074.510376	1291074.768968	1291075.584260	7.840935e-01	49	none	NaN	NaN
 140	3	13	24	bathroom	sun_agrwbmhcpmfuwmsg.tif	1291076.353872	1291076.612463	1291077.427780	8.007763e-01	14	none	NaN	NaN
 140	3	14	58	bathroom	sun_axxbkopsgyouuebh.tif	1291078.197360	1291078.455950	1291079.271250	7.507278e-01	48	none	NaN	NaN
 140	3	15	31	bathroom	sun_akiytfaagpdsphgz.tif	1291080.040849	1291080.299442	1291081.114744	6.839964e-01	21	none	NaN	NaN
 140	3	16	13	bathroom	sun_aavhrsfjbserjtht.tif	1291081.884337	1291082.142931	1291082.958057	7.590692e-01	3	none	NaN	NaN
 140	3	17	54	bathroom	sun_auzqhkafidnkrwmo.tif	1291083.727834	1291083.986421	1291084.801618	8.341420e-01	44	37	1291085.671713	1
 140	3	18	37	bathroom	sun_amzlamotzwfkwjco.tif	1291086.447194	1291086.705775	1291087.520952	7.340450e-01	27	none	NaN	NaN
 140	3	19	49	bathroom	sun_asfwthctfqerjvxr.tif	1291088.290683	1291088.549270	1291089.364516	7.173621e-01	39	none	NaN	NaN
 140	3	20	45	bathroom	sun_apkxzenqapsujocq.tif	1291090.134176	1291090.392763	1291091.208016	6.756550e-01	35	none	NaN	NaN
 140	3	21	39	bathroom	sun_anryaplzeujmzfkd.tif	1291091.977663	1291092.236256	1291093.051389	6.506308e-01	29	none	NaN	NaN
 140	3	22	51	bathroom	sun_atstyziqcmkahyxk.tif	1291093.821155	1291094.079742	1291094.894951	7.674106e-01	41	none	NaN	NaN
 140	3	23	30	bathroom	sun_ajlawzvmubibwbpy.tif	1291095.664645	1291095.923236	1291096.738470	6.923379e-01	20	none	NaN	NaN
 140	3	24	33	bathroom	sun_aljolscmmzydegqp.tif	1291097.508139	1291097.766729	1291098.581881	7.840935e-01	23	none	NaN	NaN
 140	3	25	20	bathroom	sun_afcoljnjfoxjtgja.tif	1291099.351629	1291099.610221	1291100.425499	6.756550e-01	10	none	NaN	NaN
 140	3	26	60	bathroom	sun_azqyogdvyhahyram.tif	1291101.195120	1291101.453708	1291102.268957	8.091177e-01	50	none	NaN	NaN
 140	3	27	22	bathroom	sun_agguqiubmwhqqunb.tif	1291103.038613	1291103.297218	1291104.112530	7.674106e-01	12	37	1291105.055808	0
 140	3	28	55	bathroom	sun_avhrdrntsqrjzccq.tif	1291105.833041	1291106.091637	1291106.906767	7.173621e-01	45	none	NaN	NaN
 140	3	29	52	bathroom	sun_aunuadmjocsddsrl.tif	1291107.668192	1291107.926781	1291108.742063	7.006793e-01	42	none	NaN	NaN
 140	3	30	14	bathroom	sun_abapwbhyhkfixyex.tif	1291109.511687	1291109.770277	1291110.585472	7.924349e-01	4	none	NaN	NaN
 140	3	31	35	bathroom	sun_alotolagknyrgtsk.tif	1291111.355172	1291111.613762	1291112.429083	7.757521e-01	25	39	1291114.351766	1
 140	3	32	11	bathroom	labelme_sfxiulhjbhlyiyt.tif	1291115.125569	1291115.384158	1291116.199507	7.340450e-01	1	none	NaN	NaN
 140	3	33	48	bathroom	sun_aqrpegblszgcoujh.tif	1291116.969062	1291117.227652	1291118.042936	8.258006e-01	38	none	NaN	NaN
 140	3	34	28	bathroom	sun_ahijqszoswveeyji.tif	1291118.812551	1291119.071146	1291119.886480	7.507278e-01	18	39	1291121.999776	1
 140	3	35	57	bathroom	sun_axldvoqbuvuggfmq.tif	1291122.774808	1291123.033399	1291123.848637	7.924349e-01	47	none	NaN	NaN
 140	3	36	26	bathroom	sun_ahaulkltgpkeeemi.tif	1291124.618302	1291124.876884	1291125.692231	7.257035e-01	16	none	NaN	NaN
 140	3	37	23	bathroom	sun_aghyqhbptboemmoq.tif	1291126.461793	1291126.720379	1291127.535640	8.174592e-01	13	none	NaN	NaN
 140	3	38	47	bathroom	sun_apynckhmoftszqoq.tif	1291128.305284	1291128.563876	1291129.379064	7.423864e-01	37	none	NaN	NaN
 140	3	39	42	bathroom	sun_apeeialkgkuxddgh.tif	1291130.148772	1291130.407363	1291131.222520	7.674106e-01	32	37	1291138.799787	0
 140	3	40	25	bathroom	sun_agyqfjcfkdcydepw.tif	1291139.574770	1291139.833363	1291140.648642	6.839964e-01	15	none	NaN	NaN
 140	3	41	32	bathroom	sun_aleqenyvunhactkl.tif	1291141.418263	1291141.676848	1291142.492136	7.507278e-01	22	39	1291143.655428	1
 140	3	42	12	bathroom	sun_aapitsgbtktqubfy.tif	1291144.429572	1291144.688131	1291145.503306	8.007763e-01	2	none	NaN	NaN
 140	3	43	36	bathroom	sun_ambriybtogmepttm.tif	1291146.273062	1291146.531649	1291147.346995	7.006793e-01	26	none	NaN	NaN
 140	3	44	44	bathroom	sun_apkruvsevgegsdwp.tif	1291148.116554	1291148.375143	1291149.190451	8.508248e-01	34	none	NaN	NaN
 140	3	45	56	bathroom	sun_awnqiikzaispgmwo.tif	1291149.960046	1291150.218634	1291151.033850	6.756550e-01	46	none	NaN	NaN
 140	3	46	15	bathroom	sun_abjtwfukuwddzted.tif	1291151.803536	1291152.062123	1291152.877286	8.424834e-01	5	none	NaN	NaN
 140	3	47	16	bathroom	sun_acduarbnmmoglmiv.tif	1291153.647026	1291153.905620	1291154.720864	6.923379e-01	6	none	NaN	NaN
 140	3	48	43	bathroom	sun_apjevzvycyhuqghb.tif	1291155.490519	1291155.749113	1291156.564383	7.757521e-01	33	none	NaN	NaN
 140	3	49	40	bathroom	sun_aofnryafpsjimzsb.tif	1291157.334010	1291157.592601	1291158.407786	6.673136e-01	30	none	NaN	NaN
 140	3	50	41	bathroom	sun_aoybiabnpadelefl.tif	1291159.177502	1291159.436094	1291160.251422	6.673136e-01	31	none	NaN	NaN
 140	3	51	27	bathroom	sun_ahcvzmoyaycdoftf.tif	1291161.020991	1291161.279581	1291162.094712	8.341420e-01	17	37	1291162.895749	1
 140	3	52	36	bathroom	sun_ambriybtogmepttm.tif	1291163.673616	1291163.932206	1291164.747563	8.341420e-01	26	none	NaN	NaN
 140	3	53	37	bathroom	sun_amzlamotzwfkwjco.tif	1291165.517110	1291165.775694	1291166.590922	8.091177e-01	27	none	NaN	NaN
 140	3	54	14	bathroom	sun_abapwbhyhkfixyex.tif	1291167.352260	1291167.610848	1291168.426175	8.007763e-01	4	none	NaN	NaN
 140	3	55	40	bathroom	sun_aofnryafpsjimzsb.tif	1291169.195750	1291169.454334	1291170.269475	7.173621e-01	30	none	NaN	NaN
 140	3	56	41	bathroom	sun_aoybiabnpadelefl.tif	1291171.039239	1291171.297823	1291172.113092	6.589722e-01	31	none	NaN	NaN
 140	3	57	39	bathroom	sun_anryaplzeujmzfkd.tif	1291172.882730	1291173.141316	1291173.956494	6.839964e-01	29	none	NaN	NaN
 140	3	58	43	bathroom	sun_apjevzvycyhuqghb.tif	1291174.726223	1291174.984811	1291175.799948	6.923379e-01	33	none	NaN	NaN
 140	3	59	60	bathroom	sun_azqyogdvyhahyram.tif	1291176.569715	1291176.828300	1291177.643613	7.006793e-01	50	39	1291179.623715	1
 140	3	60	38	bathroom	sun_anhioqovhscjqqwb.tif	1291180.398499	1291180.657089	1291181.472220	7.257035e-01	28	none	NaN	NaN
 140	3	61	12	bathroom	sun_aapitsgbtktqubfy.tif	1291182.241990	1291182.500583	1291183.315909	7.423864e-01	2	none	NaN	NaN
 140	3	62	11	bathroom	labelme_sfxiulhjbhlyiyt.tif	1291184.085482	1291184.344075	1291185.159262	7.757521e-01	1	none	NaN	NaN
 140	3	63	30	bathroom	sun_ajlawzvmubibwbpy.tif	1291185.928979	1291186.187561	1291187.002784	8.174592e-01	20	none	NaN	NaN
 140	3	64	28	bathroom	sun_ahijqszoswveeyji.tif	1291187.772468	1291188.031058	1291188.846338	6.506308e-01	18	none	NaN	NaN
 140	3	65	48	bathroom	sun_aqrpegblszgcoujh.tif	1291189.615954	1291189.874552	1291190.689795	7.507278e-01	38	none	NaN	NaN
 140	3	66	25	bathroom	sun_agyqfjcfkdcydepw.tif	1291191.459445	1291191.718035	1291192.533321	7.423864e-01	15	none	NaN	NaN
 140	3	67	23	bathroom	sun_aghyqhbptboemmoq.tif	1291193.302943	1291193.561530	1291194.376662	6.923379e-01	13	none	NaN	NaN
 140	3	68	16	bathroom	sun_acduarbnmmoglmiv.tif	1291195.146428	1291195.405018	1291196.220304	7.340450e-01	6	none	NaN	NaN
 140	3	69	58	bathroom	sun_axxbkopsgyouuebh.tif	1291196.989926	1291197.248515	1291198.063826	8.258006e-01	48	none	NaN	NaN
 140	3	70	21	bathroom	sun_aggnnqpdorgxpvce.tif	1291198.833415	1291199.092002	1291199.907197	8.174592e-01	11	none	NaN	NaN
 140	3	71	26	bathroom	sun_ahaulkltgpkeeemi.tif	1291200.676901	1291200.935491	1291201.750689	8.091177e-01	16	none	NaN	NaN
 140	3	72	34	bathroom	sun_alkosphxlxwjwgjd.tif	1291202.520394	1291202.778985	1291203.594141	6.506308e-01	24	none	NaN	NaN
 140	3	73	52	bathroom	sun_aunuadmjocsddsrl.tif	1291204.363887	1291204.622477	1291205.437681	6.673136e-01	42	none	NaN	NaN
 140	3	74	15	bathroom	sun_abjtwfukuwddzted.tif	1291206.207378	1291206.465964	1291207.281128	7.590692e-01	5	none	NaN	NaN
 140	3	75	13	bathroom	sun_aavhrsfjbserjtht.tif	1291208.050866	1291208.309458	1291209.124660	7.674106e-01	3	none	NaN	NaN
 140	3	76	46	bathroom	sun_apmqjbnwghzuhhzh.tif	1291209.894361	1291210.152947	1291210.968277	8.424834e-01	36	none	NaN	NaN
 140	3	77	59	bathroom	sun_axyrejkiiaqiurjk.tif	1291211.737854	1291211.996433	1291212.811724	7.924349e-01	49	none	NaN	NaN
 140	3	78	42	bathroom	sun_apeeialkgkuxddgh.tif	1291213.581342	1291213.839929	1291214.655243	7.840935e-01	32	none	NaN	NaN
 140	3	79	24	bathroom	sun_agrwbmhcpmfuwmsg.tif	1291215.424833	1291215.683422	1291216.498768	8.007763e-01	14	none	NaN	NaN
 140	3	80	35	bathroom	sun_alotolagknyrgtsk.tif	1291217.268322	1291217.526913	1291218.342068	7.173621e-01	25	37	1291220.143875	1
 140	3	81	57	bathroom	sun_axldvoqbuvuggfmq.tif	1291220.921937	1291221.180530	1291221.995717	8.258006e-01	47	none	NaN	NaN
 140	3	82	32	bathroom	sun_aleqenyvunhactkl.tif	1291222.765427	1291223.024021	1291223.839319	7.423864e-01	22	none	NaN	NaN
 140	3	83	55	bathroom	sun_avhrdrntsqrjzccq.tif	1291224.608924	1291224.867507	1291225.682845	7.924349e-01	45	39	1291230.071729	0
 140	3	84	22	bathroom	sun_agguqiubmwhqqunb.tif	1291230.848431	1291231.107017	1291231.922319	6.589722e-01	12	none	NaN	NaN
 140	3	85	45	bathroom	sun_apkxzenqapsujocq.tif	1291232.691918	1291232.950508	1291233.765779	7.340450e-01	35	none	NaN	NaN
 140	3	86	20	bathroom	sun_afcoljnjfoxjtgja.tif	1291234.535408	1291234.793999	1291235.609164	7.840935e-01	10	37	1291236.807581	1
 140	3	87	19	bathroom	sun_aclfzgynxzxlbepz.tif	1291237.580089	1291237.838680	1291238.653900	7.590692e-01	9	none	NaN	NaN
 140	3	88	31	bathroom	sun_akiytfaagpdsphgz.tif	1291239.423583	1291239.682172	1291240.497473	7.590692e-01	21	none	NaN	NaN
 140	3	89	47	bathroom	sun_apynckhmoftszqoq.tif	1291241.267071	1291241.525666	1291242.340947	8.508248e-01	37	none	NaN	NaN
 140	3	90	17	bathroom	sun_acegryoqftbzowsg.tif	1291243.110562	1291243.369156	1291244.184446	6.839964e-01	7	none	NaN	NaN
 140	3	91	33	bathroom	sun_aljolscmmzydegqp.tif	1291244.954056	1291245.212642	1291246.027843	7.257035e-01	23	none	NaN	NaN
 140	3	92	51	bathroom	sun_atstyziqcmkahyxk.tif	1291246.797545	1291247.056134	1291247.871475	6.673136e-01	41	37	1291249.343711	1
 140	3	93	54	bathroom	sun_auzqhkafidnkrwmo.tif	1291250.117499	1291250.376092	1291251.191298	8.174592e-01	44	none	NaN	NaN
 140	3	94	18	bathroom	sun_acgyywnybuveqsro.tif	1291251.960990	1291252.219579	1291253.034836	7.006793e-01	8	none	NaN	NaN
 140	3	95	50	bathroom	sun_aspsyogrekjtfozg.tif	1291253.804477	1291254.063076	1291254.878310	7.090207e-01	40	none	NaN	NaN
 140	3	96	53	bathroom	sun_ausgutylgojavyoq.tif	1291255.647969	1291255.906564	1291256.721865	7.757521e-01	43	none	NaN	NaN
 140	3	97	56	bathroom	sun_awnqiikzaispgmwo.tif	1291257.491463	1291257.750053	1291258.565367	8.091177e-01	46	37	1291260.167565	1
 140	3	98	49	bathroom	sun_asfwthctfqerjvxr.tif	1291260.944880	1291261.203468	1291262.018691	7.590692e-01	39	none	NaN	NaN
 140	3	99	44	bathroom	sun_apkruvsevgegsdwp.tif	1291262.788370	1291263.046965	1291263.862166	6.589722e-01	34	none	NaN	NaN
 140	3	100	29	bathroom	sun_ahqjwnzgolcaoidx.tif	1291264.631859	1291264.890451	1291265.705626	8.341420e-01	19	none	NaN	NaN
 140	4	1	68	kitchen	sun_aaxxjlsuzvqlgylf.tif	1291278.120211	1291278.378796	1291279.077330	7.257035e-01	58	none	NaN	NaN
 140	4	2	77	kitchen	sun_acxkpeoqbwcxfvip.tif	1291279.846916	1291280.105510	1291280.804068	7.006793e-01	67	none	NaN	NaN
 140	4	3	79	kitchen	sun_admlmbcdswaszruo.tif	1291281.573625	1291281.832214	1291282.530729	8.174592e-01	69	none	NaN	NaN
 140	4	4	86	kitchen	sun_aggjlwcdjsjcaemh.tif	1291283.300339	1291283.558929	1291284.257284	7.090207e-01	76	none	NaN	NaN
 140	4	5	94	kitchen	sun_ahywdevtimnqcsln.tif	1291285.018708	1291285.277289	1291285.975866	7.006793e-01	84	none	NaN	NaN
 140	4	6	95	kitchen	sun_aixorpehvfykdynp.tif	1291286.745411	1291287.003995	1291287.702527	6.756550e-01	85	none	NaN	NaN
 140	4	7	75	kitchen	sun_acgtpgfybqjmzeyw.tif	1291288.472121	1291288.730712	1291289.429252	7.507278e-01	65	none	NaN	NaN
 140	4	8	88	kitchen	sun_agubuxuukhzyzpdp.tif	1291290.198832	1291290.457418	1291291.155872	6.589722e-01	78	none	NaN	NaN
 140	4	9	85	kitchen	sun_afuyedyxivkhecmu.tif	1291291.925537	1291292.184127	1291292.882660	7.840935e-01	75	37	1291293.919573	1
 140	4	10	104	kitchen	sun_auticobqsbwgoppi.tif	1291294.694942	1291294.953533	1291295.652019	7.590692e-01	94	39	1291298.463720	1
 140	4	11	72	kitchen	sun_abpwyqmlzafvklqo.tif	1291299.241112	1291299.499700	1291300.198258	7.924349e-01	62	none	NaN	NaN
 140	4	12	66	kitchen	sun_aapllqyqlykszopd.tif	1291300.967825	1291301.226409	1291301.924770	7.257035e-01	56	none	NaN	NaN
 140	4	13	69	kitchen	sun_abdenxonkemggwsq.tif	1291302.694525	1291302.953119	1291303.651484	8.091177e-01	59	39	1291304.607604	1
 140	4	14	108	kitchen	sun_aymvwlarqodbwuoc.tif	1291305.380519	1291305.639111	1291306.337508	6.756550e-01	98	none	NaN	NaN
 140	4	15	105	kitchen	sun_avszsnwsbuqfgzbn.tif	1291307.107226	1291307.365815	1291308.064249	7.507278e-01	95	none	NaN	NaN
 140	4	16	78	kitchen	sun_adgqasybjyktddhj.tif	1291308.833939	1291309.092529	1291309.790945	8.007763e-01	68	none	NaN	NaN
 140	4	17	101	kitchen	sun_aqeaevwwwjoqhzvl.tif	1291310.560647	1291310.819233	1291311.517682	8.508248e-01	91	37	1291315.855617	0
 140	4	18	99	kitchen	sun_akcjzhbbjlbogpdi.tif	1291316.633322	1291316.891914	1291317.590441	6.839964e-01	89	none	NaN	NaN
 140	4	19	90	kitchen	sun_ahdycvpopffkzzsu.tif	1291318.360028	1291318.618621	1291319.317126	7.423864e-01	80	none	NaN	NaN
 140	4	20	70	kitchen	sun_abdxkyyxwfskuaqb.tif	1291320.086744	1291320.345332	1291321.043850	8.341420e-01	60	none	NaN	NaN
 140	4	21	81	kitchen	sun_aehawpgmrlhlvcow.tif	1291321.813449	1291322.072036	1291322.770589	8.007763e-01	71	39	1291325.559342	1
 140	4	22	106	kitchen	sun_awcpdzzznmweyyhv.tif	1291326.334586	1291326.593179	1291327.291702	8.091177e-01	96	none	NaN	NaN
 140	4	23	93	kitchen	sun_ahspylgoovwmwvgk.tif	1291328.061302	1291328.319891	1291329.018255	6.506308e-01	83	none	NaN	NaN
 140	4	24	97	kitchen	sun_ajkqhtgcbgpcwrwn.tif	1291329.788006	1291330.046599	1291330.745126	7.173621e-01	87	none	NaN	NaN
 140	4	25	91	kitchen	sun_ahljzhgcdpomplvg.tif	1291331.514718	1291331.773305	1291332.471762	7.257035e-01	81	none	NaN	NaN
 140	4	26	96	kitchen	sun_ajcbwwvdlsvjyzje.tif	1291333.241425	1291333.500018	1291334.198441	8.091177e-01	86	none	NaN	NaN
 140	4	27	62	kitchen	labelme_kxvouciolcpqplr.tif	1291334.968139	1291335.226723	1291335.925113	7.757521e-01	52	none	NaN	NaN
 140	4	28	109	kitchen	sun_aypmqwcualkenuoe.tif	1291336.694844	1291336.953434	1291337.651955	7.757521e-01	99	37	1291338.927445	1
 140	4	29	76	kitchen	sun_acwjdupvyjsugpay.tif	1291339.697816	1291339.956411	1291340.654860	8.091177e-01	66	none	NaN	NaN
 140	4	30	87	kitchen	sun_agorklincwxrdtga.tif	1291341.424523	1291341.683116	1291342.381536	8.424834e-01	77	none	NaN	NaN
 140	4	31	102	kitchen	sun_auaiucuqpdausiva.tif	1291343.151239	1291343.409823	1291344.108189	8.341420e-01	92	none	NaN	NaN
 140	4	32	110	kitchen	sun_azmutvzbxypaceni.tif	1291344.869607	1291345.128186	1291345.826688	7.674106e-01	100	37	1291346.871512	0
 140	4	33	98	kitchen	sun_akchetnepxlcxhsu.tif	1291347.647345	1291347.905936	1291348.604362	6.673136e-01	88	none	NaN	NaN
 140	4	34	100	kitchen	sun_amjjdeyrggfqgmom.tif	1291349.374057	1291349.632650	1291350.331153	7.340450e-01	90	37	1291351.303600	1
 140	4	35	107	kitchen	sun_axyyrmzcupyhlivc.tif	1291352.076737	1291352.335323	1291353.033854	7.674106e-01	97	none	NaN	NaN
 140	4	36	65	kitchen	sun_aamedkxepzlwuxes.tif	1291353.803444	1291354.062035	1291354.760495	8.174592e-01	55	none	NaN	NaN
 140	4	37	64	kitchen	sun_aadbddgrdsjugojn.tif	1291355.530156	1291355.788745	1291356.487101	7.340450e-01	54	37	1291357.423727	1
 140	4	38	89	kitchen	sun_agzzivivdpnawacl.tif	1291358.199481	1291358.458052	1291359.156523	8.424834e-01	79	none	NaN	NaN
 140	4	39	103	kitchen	sun_aunzlwrbjumxhwdj.tif	1291359.926166	1291360.184756	1291360.883283	6.839964e-01	93	none	NaN	NaN
 140	4	40	71	kitchen	sun_abftihopvusyfakt.tif	1291361.652873	1291361.911467	1291362.609931	7.423864e-01	61	none	NaN	NaN
 140	4	41	83	kitchen	sun_aeqdocilnnpuvuhx.tif	1291363.379586	1291363.638173	1291364.336715	6.506308e-01	73	none	NaN	NaN
 140	4	42	73	kitchen	sun_abrcnpqqhmjwekyf.tif	1291365.106293	1291365.364886	1291366.063334	6.506308e-01	63	none	NaN	NaN
 140	4	43	84	kitchen	sun_aexklacwqwezaorf.tif	1291366.833000	1291367.091593	1291367.790031	7.173621e-01	74	none	NaN	NaN
 140	4	44	92	kitchen	sun_ahpczsiumwwocjkv.tif	1291368.559710	1291368.818304	1291369.516833	7.674106e-01	82	none	NaN	NaN
 140	4	45	82	kitchen	sun_aenotlpyftoioydp.tif	1291370.286419	1291370.545011	1291371.243569	8.258006e-01	72	39	1291372.943508	1
 140	4	46	80	kitchen	sun_aegoxogugdkwpmpj.tif	1291373.714811	1291373.973404	1291374.671955	6.923379e-01	70	none	NaN	NaN
 140	4	47	61	kitchen	labelme_brsyyvweiuaazfr.tif	1291375.441520	1291375.700110	1291376.398606	7.090207e-01	51	none	NaN	NaN
 140	4	48	63	kitchen	labelme_rykdqxenmhulbdn.tif	1291377.168234	1291377.426820	1291378.125312	8.174592e-01	53	37	1291379.471530	1
 140	4	49	67	kitchen	sun_aarfiyshqohlwkmo.tif	1291380.246278	1291380.504865	1291381.203332	7.006793e-01	57	none	NaN	NaN
 140	4	50	74	kitchen	sun_acfmftudsenhrfhy.tif	1291381.972980	1291382.231574	1291382.930090	7.423864e-01	64	none	NaN	NaN
 140	4	51	91	kitchen	sun_ahljzhgcdpomplvg.tif	1291383.699696	1291383.958283	1291384.656777	7.924349e-01	81	none	NaN	NaN
 140	4	52	85	kitchen	sun_afuyedyxivkhecmu.tif	1291385.426408	1291385.684995	1291386.383352	8.258006e-01	75	none	NaN	NaN
 140	4	53	78	kitchen	sun_adgqasybjyktddhj.tif	1291387.153108	1291387.411699	1291388.110117	6.756550e-01	68	none	NaN	NaN
 140	4	54	92	kitchen	sun_ahpczsiumwwocjkv.tif	1291388.879819	1291389.138409	1291389.836757	6.589722e-01	82	none	NaN	NaN
 140	4	55	87	kitchen	sun_agorklincwxrdtga.tif	1291390.606527	1291390.865121	1291391.563533	8.258006e-01	77	none	NaN	NaN
 140	4	56	102	kitchen	sun_auaiucuqpdausiva.tif	1291392.333243	1291392.591826	1291393.290230	7.257035e-01	92	none	NaN	NaN
 140	4	57	66	kitchen	sun_aapllqyqlykszopd.tif	1291394.059948	1291394.318536	1291395.017090	8.007763e-01	56	37	1291397.063469	0
 140	4	58	106	kitchen	sun_awcpdzzznmweyyhv.tif	1291397.838689	1291398.097277	1291398.795842	7.090207e-01	96	none	NaN	NaN
 140	4	59	64	kitchen	sun_aadbddgrdsjugojn.tif	1291399.565394	1291399.823980	1291400.522540	7.090207e-01	54	none	NaN	NaN
 140	4	60	80	kitchen	sun_aegoxogugdkwpmpj.tif	1291401.292106	1291401.550695	1291402.249227	6.673136e-01	70	none	NaN	NaN
 140	4	61	73	kitchen	sun_abrcnpqqhmjwekyf.tif	1291403.018813	1291403.277399	1291403.975787	7.674106e-01	63	none	NaN	NaN
 140	4	62	105	kitchen	sun_avszsnwsbuqfgzbn.tif	1291404.745521	1291405.004111	1291405.702645	7.423864e-01	95	none	NaN	NaN
 140	4	63	62	kitchen	labelme_kxvouciolcpqplr.tif	1291406.472232	1291406.730818	1291407.429250	7.173621e-01	52	none	NaN	NaN
 140	4	64	89	kitchen	sun_agzzivivdpnawacl.tif	1291408.198944	1291408.457528	1291409.156013	6.673136e-01	79	none	NaN	NaN
 140	4	65	103	kitchen	sun_aunzlwrbjumxhwdj.tif	1291409.925649	1291410.184237	1291410.882658	8.258006e-01	93	37	1291412.279552	1
 140	4	66	108	kitchen	sun_aymvwlarqodbwuoc.tif	1291413.053746	1291413.312334	1291414.010755	8.424834e-01	98	none	NaN	NaN
 140	4	67	72	kitchen	sun_abpwyqmlzafvklqo.tif	1291414.780454	1291415.039044	1291415.737452	7.590692e-01	62	none	NaN	NaN
 140	4	68	70	kitchen	sun_abdxkyyxwfskuaqb.tif	1291416.507158	1291416.765749	1291417.464124	6.923379e-01	60	none	NaN	NaN
 140	4	69	68	kitchen	sun_aaxxjlsuzvqlgylf.tif	1291418.233872	1291418.492458	1291419.190826	6.756550e-01	58	37	1291420.375489	1
 140	4	70	110	kitchen	sun_azmutvzbxypaceni.tif	1291421.153426	1291421.412013	1291422.110502	7.507278e-01	100	none	NaN	NaN
 140	4	71	107	kitchen	sun_axyyrmzcupyhlivc.tif	1291422.880138	1291423.138725	1291423.837140	6.923379e-01	97	none	NaN	NaN
 140	4	72	97	kitchen	sun_ajkqhtgcbgpcwrwn.tif	1291424.606846	1291424.865431	1291425.563873	7.340450e-01	87	none	NaN	NaN
 140	4	73	65	kitchen	sun_aamedkxepzlwuxes.tif	1291426.333552	1291426.592143	1291427.291126	7.590692e-01	55	39	1291429.591428	1
 140	4	74	99	kitchen	sun_akcjzhbbjlbogpdi.tif	1291430.362543	1291430.621124	1291431.319602	6.839964e-01	89	none	NaN	NaN
 140	4	75	94	kitchen	sun_ahywdevtimnqcsln.tif	1291432.089249	1291432.347837	1291433.046301	7.840935e-01	84	none	NaN	NaN
 140	4	76	83	kitchen	sun_aeqdocilnnpuvuhx.tif	1291433.815960	1291434.074548	1291434.772928	8.341420e-01	73	none	NaN	NaN
 140	4	77	86	kitchen	sun_aggjlwcdjsjcaemh.tif	1291435.542665	1291435.801250	1291436.499609	6.673136e-01	76	none	NaN	NaN
 140	4	78	95	kitchen	sun_aixorpehvfykdynp.tif	1291437.269375	1291437.527962	1291438.226339	7.590692e-01	85	none	NaN	NaN
 140	4	79	74	kitchen	sun_acfmftudsenhrfhy.tif	1291438.987744	1291439.246329	1291439.944720	7.590692e-01	64	none	NaN	NaN
 140	4	80	77	kitchen	sun_acxkpeoqbwcxfvip.tif	1291440.714450	1291440.973039	1291441.671582	7.757521e-01	67	none	NaN	NaN
 140	4	81	79	kitchen	sun_admlmbcdswaszruo.tif	1291442.441161	1291442.699754	1291443.398181	7.924349e-01	69	none	NaN	NaN
 140	4	82	84	kitchen	sun_aexklacwqwezaorf.tif	1291444.167869	1291444.426455	1291445.124950	8.508248e-01	74	none	NaN	NaN
 140	4	83	88	kitchen	sun_agubuxuukhzyzpdp.tif	1291445.894580	1291446.153168	1291446.851732	7.924349e-01	78	none	NaN	NaN
 140	4	84	109	kitchen	sun_aypmqwcualkenuoe.tif	1291447.621283	1291447.879876	1291448.578447	8.424834e-01	99	none	NaN	NaN
 140	4	85	63	kitchen	labelme_rykdqxenmhulbdn.tif	1291449.347994	1291449.606586	1291450.304972	6.589722e-01	53	none	NaN	NaN
 140	4	86	101	kitchen	sun_aqeaevwwwjoqhzvl.tif	1291451.074710	1291451.333289	1291452.031814	8.341420e-01	91	none	NaN	NaN
 140	4	87	93	kitchen	sun_ahspylgoovwmwvgk.tif	1291452.801414	1291453.060004	1291453.758460	7.840935e-01	83	none	NaN	NaN
 140	4	88	81	kitchen	sun_aehawpgmrlhlvcow.tif	1291454.528124	1291454.786710	1291455.485260	7.340450e-01	71	none	NaN	NaN
 140	4	89	90	kitchen	sun_ahdycvpopffkzzsu.tif	1291456.254829	1291456.513420	1291457.211975	8.258006e-01	80	none	NaN	NaN
 140	4	90	98	kitchen	sun_akchetnepxlcxhsu.tif	1291457.981541	1291458.240125	1291458.938609	7.757521e-01	88	none	NaN	NaN
 140	4	91	69	kitchen	sun_abdenxonkemggwsq.tif	1291459.708251	1291459.966836	1291460.665246	6.923379e-01	59	none	NaN	NaN
 140	4	92	96	kitchen	sun_ajcbwwvdlsvjyzje.tif	1291461.434959	1291461.693547	1291462.391930	6.839964e-01	86	none	NaN	NaN
 140	4	93	75	kitchen	sun_acgtpgfybqjmzeyw.tif	1291463.161671	1291463.420260	1291464.118729	8.174592e-01	65	none	NaN	NaN
 140	4	94	76	kitchen	sun_acwjdupvyjsugpay.tif	1291464.888376	1291465.146964	1291465.845405	7.173621e-01	66	none	NaN	NaN
 140	4	95	104	kitchen	sun_auticobqsbwgoppi.tif	1291466.615080	1291466.873676	1291467.572205	8.007763e-01	94	none	NaN	NaN
 140	4	96	82	kitchen	sun_aenotlpyftoioydp.tif	1291468.341793	1291468.600381	1291469.298926	7.840935e-01	72	none	NaN	NaN
 140	4	97	61	kitchen	labelme_brsyyvweiuaazfr.tif	1291470.068504	1291470.327094	1291471.025635	7.006793e-01	51	none	NaN	NaN
 140	4	98	71	kitchen	sun_abftihopvusyfakt.tif	1291471.795214	1291472.053798	1291472.752264	6.589722e-01	61	none	NaN	NaN
 140	4	99	67	kitchen	sun_aarfiyshqohlwkmo.tif	1291473.521912	1291473.780511	1291474.478932	6.923379e-01	57	none	NaN	NaN
 140	4	100	100	kitchen	sun_amjjdeyrggfqgmom.tif	1291475.248624	1291475.507217	1291476.205746	7.507278e-01	90	none	NaN	NaN
 140	5	1	47	bathroom	sun_apynckhmoftszqoq.tif	1291513.353006	1291513.611595	1291514.318609	7.590692e-01	37	none	NaN	NaN
 140	5	2	55	bathroom	sun_avhrdrntsqrjzccq.tif	1291515.088053	1291515.346641	1291516.053344	6.506308e-01	45	39	1291518.879497	1
 140	5	3	45	bathroom	sun_apkxzenqapsujocq.tif	1291519.650902	1291519.909489	1291520.616183	7.423864e-01	35	none	NaN	NaN
 140	5	4	41	bathroom	sun_aoybiabnpadelefl.tif	1291521.385954	1291521.644544	1291522.351393	7.090207e-01	31	none	NaN	NaN
 140	5	5	21	bathroom	sun_aggnnqpdorgxpvce.tif	1291523.121004	1291523.379597	1291524.086431	7.173621e-01	11	none	NaN	NaN
 140	5	6	36	bathroom	sun_ambriybtogmepttm.tif	1291524.856054	1291525.114643	1291525.821517	8.508248e-01	26	none	NaN	NaN
 140	5	7	24	bathroom	sun_agrwbmhcpmfuwmsg.tif	1291526.591106	1291526.849693	1291527.556602	6.756550e-01	14	none	NaN	NaN
 140	5	8	37	bathroom	sun_amzlamotzwfkwjco.tif	1291528.326154	1291528.584741	1291529.291527	7.006793e-01	27	none	NaN	NaN
 140	5	9	20	bathroom	sun_afcoljnjfoxjtgja.tif	1291530.061206	1291530.319795	1291531.026505	7.257035e-01	10	none	NaN	NaN
 140	5	10	40	bathroom	sun_aofnryafpsjimzsb.tif	1291531.796255	1291532.054841	1291532.761596	7.507278e-01	30	none	NaN	NaN
 140	5	11	42	bathroom	sun_apeeialkgkuxddgh.tif	1291533.531310	1291533.789896	1291534.496781	8.091177e-01	32	none	NaN	NaN
 140	5	12	13	bathroom	sun_aavhrsfjbserjtht.tif	1291535.266354	1291535.524945	1291536.231674	8.174592e-01	3	none	NaN	NaN
 140	5	13	11	bathroom	labelme_sfxiulhjbhlyiyt.tif	1291537.001409	1291537.259998	1291537.966762	7.257035e-01	1	none	NaN	NaN
 140	5	14	34	bathroom	sun_alkosphxlxwjwgjd.tif	1291538.736458	1291538.995049	1291539.701796	6.589722e-01	24	37	1291540.607499	1
 140	5	15	51	bathroom	sun_atstyziqcmkahyxk.tif	1291541.380739	1291541.639329	1291542.346231	7.257035e-01	41	39	1291543.935445	1
 140	5	16	32	bathroom	sun_aleqenyvunhactkl.tif	1291544.709035	1291544.967631	1291545.674406	7.840935e-01	22	none	NaN	NaN
 140	5	17	26	bathroom	sun_ahaulkltgpkeeemi.tif	1291546.444085	1291546.702671	1291547.409515	7.924349e-01	16	none	NaN	NaN
 140	5	18	33	bathroom	sun_aljolscmmzydegqp.tif	1291548.179133	1291548.437728	1291549.144442	7.006793e-01	23	39	1291553.047569	0
 140	5	19	28	bathroom	sun_ahijqszoswveeyji.tif	1291553.818047	1291554.076640	1291554.783484	7.006793e-01	18	none	NaN	NaN
 140	5	20	19	bathroom	sun_aclfzgynxzxlbepz.tif	1291555.553099	1291555.811690	1291556.518455	7.590692e-01	9	none	NaN	NaN
 140	5	21	35	bathroom	sun_alotolagknyrgtsk.tif	1291557.288153	1291557.546741	1291558.253635	7.173621e-01	25	none	NaN	NaN
 140	5	22	58	bathroom	sun_axxbkopsgyouuebh.tif	1291559.023204	1291559.281791	1291559.988612	8.508248e-01	48	none	NaN	NaN
 140	5	23	27	bathroom	sun_ahcvzmoyaycdoftf.tif	1291560.758251	1291561.016842	1291561.723563	7.173621e-01	17	none	NaN	NaN
 140	5	24	23	bathroom	sun_aghyqhbptboemmoq.tif	1291562.493303	1291562.751896	1291563.458623	8.091177e-01	13	none	NaN	NaN
 140	5	25	56	bathroom	sun_awnqiikzaispgmwo.tif	1291564.228353	1291564.486945	1291565.193677	8.174592e-01	46	none	NaN	NaN
 140	5	26	15	bathroom	sun_abjtwfukuwddzted.tif	1291565.963405	1291566.221994	1291566.928759	7.423864e-01	5	none	NaN	NaN
 140	5	27	48	bathroom	sun_aqrpegblszgcoujh.tif	1291567.690115	1291567.948697	1291568.655445	8.424834e-01	38	none	NaN	NaN
 140	5	28	18	bathroom	sun_acgyywnybuveqsro.tif	1291569.425164	1291569.683748	1291570.390453	8.174592e-01	8	none	NaN	NaN
 140	5	29	60	bathroom	sun_azqyogdvyhahyram.tif	1291571.160213	1291571.418801	1291572.125664	8.007763e-01	50	none	NaN	NaN
 140	5	30	46	bathroom	sun_apmqjbnwghzuhhzh.tif	1291572.895263	1291573.153854	1291573.860583	6.756550e-01	36	none	NaN	NaN
 140	5	31	30	bathroom	sun_ajlawzvmubibwbpy.tif	1291574.630315	1291574.888901	1291575.595715	6.589722e-01	20	none	NaN	NaN
 140	5	32	31	bathroom	sun_akiytfaagpdsphgz.tif	1291576.365360	1291576.623957	1291577.330720	8.424834e-01	21	none	NaN	NaN
 140	5	33	16	bathroom	sun_acduarbnmmoglmiv.tif	1291578.100414	1291578.359003	1291579.065911	6.673136e-01	6	none	NaN	NaN
 140	5	34	29	bathroom	sun_ahqjwnzgolcaoidx.tif	1291579.835463	1291580.094054	1291580.800951	7.090207e-01	19	39	1291584.127430	1
 140	5	35	49	bathroom	sun_asfwthctfqerjvxr.tif	1291584.898809	1291585.157400	1291585.864206	7.674106e-01	39	none	NaN	NaN
 140	5	36	43	bathroom	sun_apjevzvycyhuqghb.tif	1291586.633864	1291586.892450	1291587.599234	8.007763e-01	33	none	NaN	NaN
 140	5	37	22	bathroom	sun_agguqiubmwhqqunb.tif	1291588.368909	1291588.627500	1291589.334226	7.006793e-01	12	none	NaN	NaN
 140	5	38	17	bathroom	sun_acegryoqftbzowsg.tif	1291590.103963	1291590.362543	1291591.069284	6.673136e-01	7	none	NaN	NaN
 140	5	39	44	bathroom	sun_apkruvsevgegsdwp.tif	1291591.839010	1291592.097620	1291592.804432	7.757521e-01	34	39	1291595.463351	1
 140	5	40	52	bathroom	sun_aunuadmjocsddsrl.tif	1291596.235027	1291596.493619	1291597.200350	8.007763e-01	42	none	NaN	NaN
 140	5	41	59	bathroom	sun_axyrejkiiaqiurjk.tif	1291597.970077	1291598.228667	1291598.935368	8.007763e-01	49	none	NaN	NaN
 140	5	42	53	bathroom	sun_ausgutylgojavyoq.tif	1291599.696791	1291599.955380	1291600.662178	7.090207e-01	43	none	NaN	NaN
 140	5	43	12	bathroom	sun_aapitsgbtktqubfy.tif	1291601.431833	1291601.690419	1291602.397190	6.589722e-01	2	none	NaN	NaN
 140	5	44	25	bathroom	sun_agyqfjcfkdcydepw.tif	1291603.166887	1291603.425478	1291604.132179	7.674106e-01	15	none	NaN	NaN
 140	5	45	14	bathroom	sun_abapwbhyhkfixyex.tif	1291604.901937	1291605.160529	1291605.867387	7.590692e-01	4	none	NaN	NaN
 140	5	46	54	bathroom	sun_auzqhkafidnkrwmo.tif	1291606.636989	1291606.895576	1291607.602364	8.091177e-01	44	none	NaN	NaN
 140	5	47	39	bathroom	sun_anryaplzeujmzfkd.tif	1291608.372042	1291608.630629	1291609.337387	7.840935e-01	29	none	NaN	NaN
 140	5	48	38	bathroom	sun_anhioqovhscjqqwb.tif	1291610.107086	1291610.365681	1291611.072400	6.756550e-01	28	none	NaN	NaN
 140	5	49	57	bathroom	sun_axldvoqbuvuggfmq.tif	1291611.842138	1291612.100733	1291612.807579	7.757521e-01	47	none	NaN	NaN
 140	5	50	50	bathroom	sun_aspsyogrekjtfozg.tif	1291613.577194	1291613.835775	1291614.542568	8.091177e-01	40	none	NaN	NaN
 140	5	51	50	bathroom	sun_aspsyogrekjtfozg.tif	1291615.312240	1291615.570829	1291616.277685	7.674106e-01	40	none	NaN	NaN
 140	5	52	58	bathroom	sun_axxbkopsgyouuebh.tif	1291617.047298	1291617.305882	1291618.012728	8.258006e-01	48	none	NaN	NaN
 140	5	53	13	bathroom	sun_aavhrsfjbserjtht.tif	1291618.782342	1291619.040931	1291619.747664	8.258006e-01	3	none	NaN	NaN
 140	5	54	28	bathroom	sun_ahijqszoswveeyji.tif	1291620.517392	1291620.775982	1291621.482816	7.423864e-01	18	none	NaN	NaN
 140	5	55	31	bathroom	sun_akiytfaagpdsphgz.tif	1291622.252441	1291622.511034	1291623.217801	7.590692e-01	21	none	NaN	NaN
 140	5	56	14	bathroom	sun_abapwbhyhkfixyex.tif	1291623.987494	1291624.246078	1291624.952885	8.341420e-01	4	none	NaN	NaN
 140	5	57	26	bathroom	sun_ahaulkltgpkeeemi.tif	1291625.722545	1291625.981135	1291626.687905	7.340450e-01	16	none	NaN	NaN
 140	5	58	45	bathroom	sun_apkxzenqapsujocq.tif	1291627.457597	1291627.716187	1291628.422906	8.258006e-01	35	none	NaN	NaN
 140	5	59	52	bathroom	sun_aunuadmjocsddsrl.tif	1291629.192644	1291629.451235	1291630.158017	7.840935e-01	42	none	NaN	NaN
 140	5	60	15	bathroom	sun_abjtwfukuwddzted.tif	1291630.927694	1291631.186278	1291631.893017	8.424834e-01	5	none	NaN	NaN
 140	5	61	42	bathroom	sun_apeeialkgkuxddgh.tif	1291632.654400	1291632.912997	1291633.619878	8.341420e-01	32	none	NaN	NaN
 140	5	62	32	bathroom	sun_aleqenyvunhactkl.tif	1291634.389454	1291634.648042	1291635.354745	8.341420e-01	22	none	NaN	NaN
 140	5	63	34	bathroom	sun_alkosphxlxwjwgjd.tif	1291636.124500	1291636.383093	1291637.089971	7.757521e-01	24	none	NaN	NaN
 140	5	64	16	bathroom	sun_acduarbnmmoglmiv.tif	1291637.859554	1291638.118143	1291638.824911	8.258006e-01	6	none	NaN	NaN
 140	5	65	44	bathroom	sun_apkruvsevgegsdwp.tif	1291639.594603	1291639.853197	1291640.559981	7.590692e-01	34	none	NaN	NaN
 140	5	66	36	bathroom	sun_ambriybtogmepttm.tif	1291641.329657	1291641.588242	1291642.295153	7.507278e-01	26	none	NaN	NaN
 140	5	67	27	bathroom	sun_ahcvzmoyaycdoftf.tif	1291643.064710	1291643.323292	1291644.030127	6.839964e-01	17	none	NaN	NaN
 140	5	68	33	bathroom	sun_aljolscmmzydegqp.tif	1291644.799759	1291645.058350	1291645.765163	8.174592e-01	23	37	1291649.583370	0
 140	5	69	49	bathroom	sun_asfwthctfqerjvxr.tif	1291650.355253	1291650.613841	1291651.320639	6.923379e-01	39	none	NaN	NaN
 140	5	70	46	bathroom	sun_apmqjbnwghzuhhzh.tif	1291652.090302	1291652.348896	1291653.055720	6.589722e-01	36	39	1291656.407400	1
 140	5	71	60	bathroom	sun_azqyogdvyhahyram.tif	1291657.178675	1291657.437260	1291658.144065	6.923379e-01	50	37	1291659.695335	1
 140	5	72	56	bathroom	sun_awnqiikzaispgmwo.tif	1291660.473604	1291660.732188	1291661.439100	8.341420e-01	46	none	NaN	NaN
 140	5	73	53	bathroom	sun_ausgutylgojavyoq.tif	1291662.208652	1291662.467240	1291663.174090	7.924349e-01	43	none	NaN	NaN
 140	5	74	12	bathroom	sun_aapitsgbtktqubfy.tif	1291663.943698	1291664.202283	1291664.908991	7.924349e-01	2	none	NaN	NaN
 140	5	75	38	bathroom	sun_anhioqovhscjqqwb.tif	1291665.678749	1291665.937339	1291666.644112	6.923379e-01	28	none	NaN	NaN
 140	5	76	47	bathroom	sun_apynckhmoftszqoq.tif	1291667.413802	1291667.672389	1291668.379243	6.923379e-01	37	none	NaN	NaN
 140	5	77	55	bathroom	sun_avhrdrntsqrjzccq.tif	1291669.148849	1291669.407443	1291670.114164	6.839964e-01	45	none	NaN	NaN
 140	5	78	29	bathroom	sun_ahqjwnzgolcaoidx.tif	1291670.883902	1291671.142488	1291671.849185	8.424834e-01	19	none	NaN	NaN
 140	5	79	20	bathroom	sun_afcoljnjfoxjtgja.tif	1291672.618953	1291672.877546	1291673.584432	7.840935e-01	10	37	1291674.455084	1
 140	5	80	59	bathroom	sun_axyrejkiiaqiurjk.tif	1291675.229866	1291675.488458	1291676.195204	6.506308e-01	49	none	NaN	NaN
 140	5	81	39	bathroom	sun_anryaplzeujmzfkd.tif	1291676.964920	1291677.223512	1291677.930311	7.257035e-01	29	none	NaN	NaN
 140	5	82	18	bathroom	sun_acgyywnybuveqsro.tif	1291678.699971	1291678.958560	1291679.665404	7.340450e-01	8	none	NaN	NaN
 140	5	83	21	bathroom	sun_aggnnqpdorgxpvce.tif	1291680.435019	1291680.693611	1291681.400340	7.090207e-01	11	none	NaN	NaN
 140	5	84	37	bathroom	sun_amzlamotzwfkwjco.tif	1291682.170070	1291682.428656	1291683.135510	7.173621e-01	27	39	1291687.295269	1
 140	5	85	11	bathroom	labelme_sfxiulhjbhlyiyt.tif	1291688.067577	1291688.326162	1291689.033030	7.340450e-01	1	37	1291689.855352	1
 140	5	86	35	bathroom	sun_alotolagknyrgtsk.tif	1291690.628438	1291690.887033	1291691.593759	7.507278e-01	25	37	1291692.311451	1
 140	5	87	30	bathroom	sun_ajlawzvmubibwbpy.tif	1291693.089212	1291693.347801	1291694.054629	7.674106e-01	20	none	NaN	NaN
 140	5	88	57	bathroom	sun_axldvoqbuvuggfmq.tif	1291694.824260	1291695.082852	1291695.789736	6.839964e-01	47	none	NaN	NaN
 140	5	89	22	bathroom	sun_agguqiubmwhqqunb.tif	1291696.559309	1291696.817905	1291697.524781	6.756550e-01	12	none	NaN	NaN
 140	5	90	19	bathroom	sun_aclfzgynxzxlbepz.tif	1291698.294364	1291698.552951	1291699.259739	7.340450e-01	9	none	NaN	NaN
 140	5	91	25	bathroom	sun_agyqfjcfkdcydepw.tif	1291700.029413	1291700.288006	1291700.994836	6.673136e-01	15	37	1291701.759184	1
 140	5	92	43	bathroom	sun_apjevzvycyhuqghb.tif	1291702.531892	1291702.790479	1291703.497199	6.673136e-01	33	none	NaN	NaN
 140	5	93	54	bathroom	sun_auzqhkafidnkrwmo.tif	1291704.266940	1291704.525527	1291705.232355	7.757521e-01	44	none	NaN	NaN
 140	5	94	51	bathroom	sun_atstyziqcmkahyxk.tif	1291706.001988	1291706.260579	1291706.967461	7.423864e-01	41	none	NaN	NaN
 140	5	95	24	bathroom	sun_agrwbmhcpmfuwmsg.tif	1291707.737043	1291707.995629	1291708.702424	6.839964e-01	14	none	NaN	NaN
 140	5	96	23	bathroom	sun_aghyqhbptboemmoq.tif	1291709.472088	1291709.730685	1291710.437516	6.923379e-01	13	39	1291711.527219	1
 140	5	97	40	bathroom	sun_aofnryafpsjimzsb.tif	1291712.299889	1291712.558477	1291713.265291	6.506308e-01	30	none	NaN	NaN
 140	5	98	41	bathroom	sun_aoybiabnpadelefl.tif	1291714.034940	1291714.293528	1291715.000281	7.507278e-01	31	none	NaN	NaN
 140	5	99	48	bathroom	sun_aqrpegblszgcoujh.tif	1291715.769994	1291716.028578	1291716.735426	7.924349e-01	38	none	NaN	NaN
 140	5	100	17	bathroom	sun_acegryoqftbzowsg.tif	1291717.505041	1291717.763628	1291718.470519	8.258006e-01	7	none	NaN	NaN
 140	6	1	64	kitchen	sun_aadbddgrdsjugojn.tif	1291739.877179	1291740.135776	1291740.875958	8.424834e-01	54	none	NaN	NaN
 140	6	2	81	kitchen	sun_aehawpgmrlhlvcow.tif	1291741.645589	1291741.904185	1291742.644277	7.090207e-01	71	none	NaN	NaN
 140	6	3	108	kitchen	sun_aymvwlarqodbwuoc.tif	1291743.414015	1291743.672604	1291744.412772	6.839964e-01	98	none	NaN	NaN
 140	6	4	65	kitchen	sun_aamedkxepzlwuxes.tif	1291745.182429	1291745.441021	1291746.181127	8.258006e-01	55	none	NaN	NaN
 140	6	5	87	kitchen	sun_agorklincwxrdtga.tif	1291746.950851	1291747.209438	1291747.949541	8.174592e-01	77	none	NaN	NaN
 140	6	6	90	kitchen	sun_ahdycvpopffkzzsu.tif	1291748.719263	1291748.977853	1291749.717947	7.507278e-01	80	none	NaN	NaN
 140	6	7	99	kitchen	sun_akcjzhbbjlbogpdi.tif	1291750.487681	1291750.746269	1291751.486480	7.674106e-01	89	39	1291753.871309	1
 140	6	8	93	kitchen	sun_ahspylgoovwmwvgk.tif	1291754.641795	1291754.900383	1291755.640473	7.006793e-01	83	none	NaN	NaN
 140	6	9	62	kitchen	labelme_kxvouciolcpqplr.tif	1291756.410211	1291756.668798	1291757.408973	6.673136e-01	52	none	NaN	NaN
 140	6	10	69	kitchen	sun_abdenxonkemggwsq.tif	1291758.178625	1291758.437222	1291759.177371	6.839964e-01	59	none	NaN	NaN
 140	6	11	98	kitchen	sun_akchetnepxlcxhsu.tif	1291759.947041	1291760.205631	1291760.945756	7.840935e-01	88	none	NaN	NaN
 140	6	12	106	kitchen	sun_awcpdzzznmweyyhv.tif	1291761.715459	1291761.974051	1291762.714347	7.924349e-01	96	none	NaN	NaN
 140	6	13	109	kitchen	sun_aypmqwcualkenuoe.tif	1291763.483878	1291763.742461	1291764.482566	6.923379e-01	99	none	NaN	NaN
 140	6	14	100	kitchen	sun_amjjdeyrggfqgmom.tif	1291765.252290	1291765.510882	1291766.251044	7.173621e-01	90	none	NaN	NaN
 140	6	15	89	kitchen	sun_agzzivivdpnawacl.tif	1291767.020711	1291767.279299	1291768.019531	8.258006e-01	79	none	NaN	NaN
 140	6	16	103	kitchen	sun_aunzlwrbjumxhwdj.tif	1291768.789128	1291769.047717	1291769.787798	6.923379e-01	93	none	NaN	NaN
 140	6	17	78	kitchen	sun_adgqasybjyktddhj.tif	1291770.557543	1291770.816129	1291771.556328	8.341420e-01	68	none	NaN	NaN
 140	6	18	68	kitchen	sun_aaxxjlsuzvqlgylf.tif	1291772.325956	1291772.584547	1291773.324804	8.258006e-01	58	none	NaN	NaN
 140	6	19	71	kitchen	sun_abftihopvusyfakt.tif	1291774.094375	1291774.352966	1291775.093151	7.090207e-01	61	none	NaN	NaN
 140	6	20	105	kitchen	sun_avszsnwsbuqfgzbn.tif	1291775.862795	1291776.121385	1291776.861475	6.506308e-01	95	37	1291777.751214	0
 140	6	21	73	kitchen	sun_abrcnpqqhmjwekyf.tif	1291778.523778	1291778.782348	1291779.522650	7.590692e-01	63	none	NaN	NaN
 140	6	22	67	kitchen	sun_aarfiyshqohlwkmo.tif	1291780.292174	1291780.550768	1291781.290856	7.757521e-01	57	none	NaN	NaN
 140	6	23	86	kitchen	sun_aggjlwcdjsjcaemh.tif	1291782.052254	1291782.310828	1291783.051100	8.007763e-01	76	none	NaN	NaN
 140	6	24	74	kitchen	sun_acfmftudsenhrfhy.tif	1291783.820669	1291784.079261	1291784.819526	6.589722e-01	64	none	NaN	NaN
 140	6	25	66	kitchen	sun_aapllqyqlykszopd.tif	1291785.589085	1291785.847676	1291786.587745	7.173621e-01	56	none	NaN	NaN
 140	6	26	95	kitchen	sun_aixorpehvfykdynp.tif	1291787.357496	1291787.616094	1291788.356188	7.590692e-01	85	none	NaN	NaN
 140	6	27	70	kitchen	sun_abdxkyyxwfskuaqb.tif	1291789.125920	1291789.384505	1291790.124741	8.341420e-01	60	39	1291791.631180	1
 140	6	28	75	kitchen	sun_acgtpgfybqjmzeyw.tif	1291792.404163	1291792.662758	1291793.402982	8.424834e-01	65	none	NaN	NaN
 140	6	29	94	kitchen	sun_ahywdevtimnqcsln.tif	1291794.172577	1291794.431170	1291795.171315	7.423864e-01	84	none	NaN	NaN
 140	6	30	85	kitchen	sun_afuyedyxivkhecmu.tif	1291795.940996	1291796.199583	1291796.939746	7.840935e-01	75	none	NaN	NaN
 140	6	31	107	kitchen	sun_axyyrmzcupyhlivc.tif	1291797.709413	1291797.968002	1291798.708282	8.174592e-01	97	none	NaN	NaN
 140	6	32	91	kitchen	sun_ahljzhgcdpomplvg.tif	1291799.477831	1291799.736420	1291800.476625	7.257035e-01	81	none	NaN	NaN
 140	6	33	96	kitchen	sun_ajcbwwvdlsvjyzje.tif	1291801.246249	1291801.504833	1291802.244967	7.757521e-01	86	39	1291803.975190	1
 140	6	34	82	kitchen	sun_aenotlpyftoioydp.tif	1291804.749711	1291805.008303	1291805.748537	7.590692e-01	72	37	1291808.263199	1
 140	6	35	102	kitchen	sun_auaiucuqpdausiva.tif	1291809.037287	1291809.295885	1291810.035988	8.007763e-01	92	37	1291811.807278	1
 140	6	36	72	kitchen	sun_abpwyqmlzafvklqo.tif	1291812.582470	1291812.841054	1291813.581121	7.257035e-01	62	none	NaN	NaN
 140	6	37	84	kitchen	sun_aexklacwqwezaorf.tif	1291814.350883	1291814.609473	1291815.349647	7.674106e-01	74	39	1291816.671322	1
 140	6	38	101	kitchen	sun_aqeaevwwwjoqhzvl.tif	1291817.445607	1291817.704203	1291818.444278	7.674106e-01	91	none	NaN	NaN
 140	6	39	110	kitchen	sun_azmutvzbxypaceni.tif	1291819.214027	1291819.472623	1291820.212887	6.589722e-01	100	none	NaN	NaN
 140	6	40	83	kitchen	sun_aeqdocilnnpuvuhx.tif	1291820.982449	1291821.241029	1291821.981312	8.007763e-01	73	none	NaN	NaN
 140	6	41	77	kitchen	sun_acxkpeoqbwcxfvip.tif	1291822.750862	1291823.009457	1291823.749640	8.258006e-01	67	none	NaN	NaN
 140	6	42	63	kitchen	labelme_rykdqxenmhulbdn.tif	1291824.519276	1291824.777865	1291825.518046	6.506308e-01	53	none	NaN	NaN
 140	6	43	80	kitchen	sun_aegoxogugdkwpmpj.tif	1291826.287695	1291826.546284	1291827.286367	7.090207e-01	70	none	NaN	NaN
 140	6	44	79	kitchen	sun_admlmbcdswaszruo.tif	1291828.056115	1291828.314699	1291829.054793	7.924349e-01	69	37	1291830.815226	1
 140	6	45	61	kitchen	labelme_brsyyvweiuaazfr.tif	1291831.592945	1291831.851537	1291832.591593	7.006793e-01	51	none	NaN	NaN
 140	6	46	97	kitchen	sun_ajkqhtgcbgpcwrwn.tif	1291833.361363	1291833.619950	1291834.360074	7.090207e-01	87	none	NaN	NaN
 140	6	47	88	kitchen	sun_agubuxuukhzyzpdp.tif	1291835.129780	1291835.388371	1291836.128429	7.340450e-01	78	none	NaN	NaN
 140	6	48	104	kitchen	sun_auticobqsbwgoppi.tif	1291836.898196	1291837.156784	1291837.897096	7.757521e-01	94	none	NaN	NaN
 140	6	49	76	kitchen	sun_acwjdupvyjsugpay.tif	1291838.666611	1291838.925201	1291839.665453	7.590692e-01	66	none	NaN	NaN
 140	6	50	92	kitchen	sun_ahpczsiumwwocjkv.tif	1291840.435029	1291840.693618	1291841.433831	7.173621e-01	82	none	NaN	NaN
 140	6	51	105	kitchen	sun_avszsnwsbuqfgzbn.tif	1291842.203443	1291842.462034	1291843.202278	8.258006e-01	95	none	NaN	NaN
 140	6	52	92	kitchen	sun_ahpczsiumwwocjkv.tif	1291843.971863	1291844.230450	1291844.970616	8.341420e-01	82	none	NaN	NaN
 140	6	53	83	kitchen	sun_aeqdocilnnpuvuhx.tif	1291845.740281	1291845.998870	1291846.739044	7.340450e-01	73	none	NaN	NaN
 140	6	54	94	kitchen	sun_ahywdevtimnqcsln.tif	1291847.508697	1291847.767287	1291848.507482	8.091177e-01	84	none	NaN	NaN
 140	6	55	101	kitchen	sun_aqeaevwwwjoqhzvl.tif	1291849.277115	1291849.535704	1291850.275854	7.006793e-01	91	none	NaN	NaN
 140	6	56	81	kitchen	sun_aehawpgmrlhlvcow.tif	1291851.045529	1291851.304122	1291852.044337	6.839964e-01	71	none	NaN	NaN
 140	6	57	87	kitchen	sun_agorklincwxrdtga.tif	1291852.813947	1291853.072540	1291853.812764	8.091177e-01	77	none	NaN	NaN
 140	6	58	89	kitchen	sun_agzzivivdpnawacl.tif	1291854.582366	1291854.840952	1291855.581158	7.257035e-01	79	none	NaN	NaN
 140	6	59	74	kitchen	sun_acfmftudsenhrfhy.tif	1291856.350778	1291856.609368	1291857.349633	8.007763e-01	64	none	NaN	NaN
 140	6	60	67	kitchen	sun_aarfiyshqohlwkmo.tif	1291858.119201	1291858.377785	1291859.117949	6.923379e-01	57	none	NaN	NaN
 140	6	61	63	kitchen	labelme_rykdqxenmhulbdn.tif	1291859.887617	1291860.146200	1291860.886483	6.673136e-01	53	none	NaN	NaN
 140	6	62	84	kitchen	sun_aexklacwqwezaorf.tif	1291861.656026	1291861.914619	1291862.654840	6.589722e-01	74	none	NaN	NaN
 140	6	63	103	kitchen	sun_aunzlwrbjumxhwdj.tif	1291863.424451	1291863.683040	1291864.423305	6.923379e-01	93	37	1291865.655230	1
 140	6	64	91	kitchen	sun_ahljzhgcdpomplvg.tif	1291866.427417	1291866.686006	1291867.426122	6.923379e-01	81	none	NaN	NaN
 140	6	65	62	kitchen	labelme_kxvouciolcpqplr.tif	1291868.195840	1291868.454428	1291869.194537	7.423864e-01	52	37	1291871.583227	0
 140	6	66	106	kitchen	sun_awcpdzzznmweyyhv.tif	1291872.358289	1291872.616876	1291873.357077	6.673136e-01	96	none	NaN	NaN
 140	6	67	68	kitchen	sun_aaxxjlsuzvqlgylf.tif	1291874.126704	1291874.385296	1291875.125442	7.507278e-01	58	none	NaN	NaN
 140	6	68	65	kitchen	sun_aamedkxepzlwuxes.tif	1291875.895121	1291876.153710	1291876.893845	7.340450e-01	55	none	NaN	NaN
 140	6	69	96	kitchen	sun_ajcbwwvdlsvjyzje.tif	1291877.663539	1291877.922132	1291878.662248	7.006793e-01	86	none	NaN	NaN
 140	6	70	110	kitchen	sun_azmutvzbxypaceni.tif	1291879.431954	1291879.690550	1291880.430733	8.424834e-01	100	none	NaN	NaN
 140	6	71	77	kitchen	sun_acxkpeoqbwcxfvip.tif	1291881.200374	1291881.458962	1291882.199105	8.508248e-01	67	39	1291883.807293	1
 140	6	72	86	kitchen	sun_aggjlwcdjsjcaemh.tif	1291884.578717	1291884.837308	1291885.577419	7.924349e-01	76	none	NaN	NaN
 140	6	73	64	kitchen	sun_aadbddgrdsjugojn.tif	1291886.347134	1291886.605723	1291887.345894	6.756550e-01	54	none	NaN	NaN
 140	6	74	76	kitchen	sun_acwjdupvyjsugpay.tif	1291888.115550	1291888.374139	1291889.114286	8.174592e-01	66	none	NaN	NaN
 140	6	75	104	kitchen	sun_auticobqsbwgoppi.tif	1291889.883966	1291890.142557	1291890.882802	8.508248e-01	94	none	NaN	NaN
 140	6	76	95	kitchen	sun_aixorpehvfykdynp.tif	1291891.652384	1291891.910972	1291892.651094	7.507278e-01	85	none	NaN	NaN
 140	6	77	109	kitchen	sun_aypmqwcualkenuoe.tif	1291893.420801	1291893.679388	1291894.419599	8.341420e-01	99	none	NaN	NaN
 140	6	78	108	kitchen	sun_aymvwlarqodbwuoc.tif	1291895.189218	1291895.447807	1291896.187920	6.756550e-01	98	39	1291898.711215	0
 140	6	79	100	kitchen	sun_amjjdeyrggfqgmom.tif	1291899.485136	1291899.743722	1291900.483949	7.590692e-01	90	none	NaN	NaN
 140	6	80	99	kitchen	sun_akcjzhbbjlbogpdi.tif	1291901.253551	1291901.512144	1291902.252294	6.589722e-01	89	none	NaN	NaN
 140	6	81	70	kitchen	sun_abdxkyyxwfskuaqb.tif	1291903.021971	1291903.280561	1291904.020750	7.173621e-01	60	none	NaN	NaN
 140	6	82	75	kitchen	sun_acgtpgfybqjmzeyw.tif	1291904.790385	1291905.048974	1291905.789109	6.673136e-01	65	37	1291906.758904	1
 140	6	83	90	kitchen	sun_ahdycvpopffkzzsu.tif	1291907.534768	1291907.793359	1291908.533582	6.756550e-01	80	none	NaN	NaN
 140	6	84	97	kitchen	sun_ajkqhtgcbgpcwrwn.tif	1291909.303188	1291909.561769	1291910.301957	6.839964e-01	87	none	NaN	NaN
 140	6	85	88	kitchen	sun_agubuxuukhzyzpdp.tif	1291911.071608	1291911.330191	1291912.070450	6.506308e-01	78	none	NaN	NaN
 140	6	86	80	kitchen	sun_aegoxogugdkwpmpj.tif	1291912.840020	1291913.098608	1291913.838834	8.091177e-01	70	none	NaN	NaN
 140	6	87	82	kitchen	sun_aenotlpyftoioydp.tif	1291914.608439	1291914.867025	1291915.607110	7.257035e-01	72	none	NaN	NaN
 140	6	88	102	kitchen	sun_auaiucuqpdausiva.tif	1291916.376855	1291916.635435	1291917.375671	7.924349e-01	92	39	1291918.807235	1
 140	6	89	66	kitchen	sun_aapllqyqlykszopd.tif	1291919.580020	1291919.838611	1291920.578757	7.840935e-01	56	none	NaN	NaN
 140	6	90	78	kitchen	sun_adgqasybjyktddhj.tif	1291921.348436	1291921.607028	1291922.347228	8.091177e-01	68	none	NaN	NaN
 140	6	91	61	kitchen	labelme_brsyyvweiuaazfr.tif	1291923.116853	1291923.375445	1291924.115643	8.174592e-01	51	none	NaN	NaN
 140	6	92	79	kitchen	sun_admlmbcdswaszruo.tif	1291924.885275	1291925.143857	1291925.883991	8.424834e-01	69	37	1291926.647200	1
 140	6	93	73	kitchen	sun_abrcnpqqhmjwekyf.tif	1291927.421113	1291927.679706	1291928.419967	7.674106e-01	63	none	NaN	NaN
 140	6	94	69	kitchen	sun_abdenxonkemggwsq.tif	1291929.189531	1291929.448125	1291930.188377	6.756550e-01	59	none	NaN	NaN
 140	6	95	98	kitchen	sun_akchetnepxlcxhsu.tif	1291930.957948	1291931.216537	1291931.956785	7.757521e-01	88	none	NaN	NaN
 140	6	96	107	kitchen	sun_axyyrmzcupyhlivc.tif	1291932.726367	1291932.984957	1291933.725043	7.840935e-01	97	none	NaN	NaN
 140	6	97	71	kitchen	sun_abftihopvusyfakt.tif	1291934.494783	1291934.753371	1291935.493434	7.507278e-01	61	none	NaN	NaN
 140	6	98	85	kitchen	sun_afuyedyxivkhecmu.tif	1291936.263199	1291936.521789	1291937.262023	7.340450e-01	75	none	NaN	NaN
 140	6	99	93	kitchen	sun_ahspylgoovwmwvgk.tif	1291938.031615	1291938.290203	1291939.030417	7.423864e-01	83	none	NaN	NaN
 140	6	100	72	kitchen	sun_abpwyqmlzafvklqo.tif	1291939.800031	1291940.058621	1291940.798765	7.423864e-01	62	none	NaN	NaN
 140	7	1	30	bathroom	sun_ajlawzvmubibwbpy.tif	1291950.952739	1291951.211329	1291951.901490	6.673136e-01	20	37	1291953.615114	1
 140	7	2	24	bathroom	sun_agrwbmhcpmfuwmsg.tif	1291954.389473	1291954.648056	1291955.338238	7.423864e-01	14	none	NaN	NaN
 140	7	3	18	bathroom	sun_acgyywnybuveqsro.tif	1291956.107841	1291956.366428	1291957.056534	7.674106e-01	8	none	NaN	NaN
 140	7	4	11	bathroom	labelme_sfxiulhjbhlyiyt.tif	1291957.826207	1291958.084791	1291958.774877	7.507278e-01	1	none	NaN	NaN
 140	7	5	36	bathroom	sun_ambriybtogmepttm.tif	1291959.544570	1291959.803166	1291960.493272	7.840935e-01	26	none	NaN	NaN
 140	7	6	59	bathroom	sun_axyrejkiiaqiurjk.tif	1291961.262939	1291961.521526	1291962.211643	8.007763e-01	49	37	1291963.495098	0
 140	7	7	41	bathroom	sun_aoybiabnpadelefl.tif	1291964.265914	1291964.524495	1291965.214529	7.006793e-01	31	none	NaN	NaN
 140	7	8	27	bathroom	sun_ahcvzmoyaycdoftf.tif	1291965.984277	1291966.242870	1291966.933001	7.340450e-01	17	none	NaN	NaN
 140	7	9	33	bathroom	sun_aljolscmmzydegqp.tif	1291967.702648	1291967.961230	1291968.651366	7.423864e-01	23	none	NaN	NaN
 140	7	10	19	bathroom	sun_aclfzgynxzxlbepz.tif	1291969.421015	1291969.679609	1291970.369833	6.756550e-01	9	none	NaN	NaN
 140	7	11	50	bathroom	sun_aspsyogrekjtfozg.tif	1291971.139378	1291971.397972	1291972.088203	7.507278e-01	40	none	NaN	NaN
 140	7	12	25	bathroom	sun_agyqfjcfkdcydepw.tif	1291972.857746	1291973.116341	1291973.806367	6.506308e-01	15	37	1291974.502798	1
 140	7	13	48	bathroom	sun_aqrpegblszgcoujh.tif	1291975.276811	1291975.535397	1291976.225500	8.007763e-01	38	none	NaN	NaN
 140	7	14	52	bathroom	sun_aunuadmjocsddsrl.tif	1291976.995181	1291977.253768	1291977.943963	8.341420e-01	42	none	NaN	NaN
 140	7	15	45	bathroom	sun_apkxzenqapsujocq.tif	1291978.713547	1291978.972128	1291979.662278	7.924349e-01	35	none	NaN	NaN
 140	7	16	54	bathroom	sun_auzqhkafidnkrwmo.tif	1291980.431910	1291980.690505	1291981.380656	6.839964e-01	44	none	NaN	NaN
 140	7	17	43	bathroom	sun_apjevzvycyhuqghb.tif	1291982.150278	1291982.408868	1291983.098993	6.923379e-01	33	37	1291983.887084	1
 140	7	18	23	bathroom	sun_aghyqhbptboemmoq.tif	1291984.661096	1291984.919689	1291985.609895	7.590692e-01	13	none	NaN	NaN
 140	7	19	57	bathroom	sun_axldvoqbuvuggfmq.tif	1291986.379463	1291986.638054	1291987.328285	7.507278e-01	47	none	NaN	NaN
 140	7	20	13	bathroom	sun_aavhrsfjbserjtht.tif	1291988.097828	1291988.356426	1291989.046460	8.174592e-01	3	none	NaN	NaN
 140	7	21	28	bathroom	sun_ahijqszoswveeyji.tif	1291989.816195	1291990.074786	1291990.764906	7.340450e-01	18	39	1291991.903138	1
 140	7	22	51	bathroom	sun_atstyziqcmkahyxk.tif	1291992.677360	1291992.935950	1291993.625962	7.257035e-01	41	none	NaN	NaN
 140	7	23	55	bathroom	sun_avhrdrntsqrjzccq.tif	1291994.395728	1291994.654318	1291995.344535	7.090207e-01	45	none	NaN	NaN
 140	7	24	40	bathroom	sun_aofnryafpsjimzsb.tif	1291996.114098	1291996.372682	1291997.062803	6.923379e-01	30	none	NaN	NaN
 140	7	25	44	bathroom	sun_apkruvsevgegsdwp.tif	1291997.832465	1291998.091048	1291998.781115	8.091177e-01	34	none	NaN	NaN
 140	7	26	42	bathroom	sun_apeeialkgkuxddgh.tif	1291999.550835	1291999.809419	1292000.499439	8.174592e-01	32	none	NaN	NaN
 140	7	27	20	bathroom	sun_afcoljnjfoxjtgja.tif	1292001.269195	1292001.527789	1292002.217974	7.173621e-01	10	none	NaN	NaN
 140	7	28	17	bathroom	sun_acegryoqftbzowsg.tif	1292002.987566	1292003.246153	1292003.936239	8.258006e-01	7	none	NaN	NaN
 140	7	29	37	bathroom	sun_amzlamotzwfkwjco.tif	1292004.705935	1292004.964523	1292005.654573	6.923379e-01	27	none	NaN	NaN
 140	7	30	16	bathroom	sun_acduarbnmmoglmiv.tif	1292006.424301	1292006.682888	1292007.372959	6.839964e-01	6	none	NaN	NaN
 140	7	31	34	bathroom	sun_alkosphxlxwjwgjd.tif	1292008.142671	1292008.401260	1292009.091272	8.341420e-01	24	none	NaN	NaN
 140	7	32	49	bathroom	sun_asfwthctfqerjvxr.tif	1292009.852701	1292010.111281	1292010.801306	7.674106e-01	39	none	NaN	NaN
 140	7	33	31	bathroom	sun_akiytfaagpdsphgz.tif	1292011.571060	1292011.829651	1292012.519814	7.924349e-01	21	none	NaN	NaN
 140	7	34	53	bathroom	sun_ausgutylgojavyoq.tif	1292013.289429	1292013.548019	1292014.238103	7.090207e-01	43	39	1292015.935163	1
 140	7	35	39	bathroom	sun_anryaplzeujmzfkd.tif	1292016.709479	1292016.968069	1292017.658259	8.424834e-01	29	none	NaN	NaN
 140	7	36	21	bathroom	sun_aggnnqpdorgxpvce.tif	1292018.427844	1292018.686438	1292019.376648	7.924349e-01	11	37	1292023.135040	0
 140	7	37	56	bathroom	sun_awnqiikzaispgmwo.tif	1292023.908271	1292024.166854	1292024.856892	7.340450e-01	46	none	NaN	NaN
 140	7	38	14	bathroom	sun_abapwbhyhkfixyex.tif	1292025.626636	1292025.885228	1292026.575426	8.174592e-01	4	none	NaN	NaN
 140	7	39	60	bathroom	sun_azqyogdvyhahyram.tif	1292027.345004	1292027.603593	1292028.293827	7.590692e-01	50	none	NaN	NaN
 140	7	40	38	bathroom	sun_anhioqovhscjqqwb.tif	1292029.063374	1292029.321961	1292030.012080	8.258006e-01	28	none	NaN	NaN
 140	7	41	47	bathroom	sun_apynckhmoftszqoq.tif	1292030.781744	1292031.040327	1292031.730414	6.506308e-01	37	none	NaN	NaN
 140	7	42	12	bathroom	sun_aapitsgbtktqubfy.tif	1292032.500106	1292032.758699	1292033.448811	8.007763e-01	2	none	NaN	NaN
 140	7	43	22	bathroom	sun_agguqiubmwhqqunb.tif	1292034.218474	1292034.477065	1292035.167222	7.423864e-01	12	37	1292036.455110	1
 140	7	44	46	bathroom	sun_apmqjbnwghzuhhzh.tif	1292037.229781	1292037.488375	1292038.178505	8.341420e-01	36	none	NaN	NaN
 140	7	45	58	bathroom	sun_axxbkopsgyouuebh.tif	1292038.948156	1292039.206741	1292039.896816	8.258006e-01	48	none	NaN	NaN
 140	7	46	35	bathroom	sun_alotolagknyrgtsk.tif	1292040.666519	1292040.925109	1292041.615289	8.424834e-01	25	none	NaN	NaN
 140	7	47	26	bathroom	sun_ahaulkltgpkeeemi.tif	1292042.384885	1292042.643479	1292043.333612	8.091177e-01	16	none	NaN	NaN
 140	7	48	29	bathroom	sun_ahqjwnzgolcaoidx.tif	1292044.103260	1292044.361840	1292045.051897	6.673136e-01	19	none	NaN	NaN
 140	7	49	32	bathroom	sun_aleqenyvunhactkl.tif	1292045.821623	1292046.080215	1292046.770240	7.590692e-01	22	none	NaN	NaN
 140	7	50	15	bathroom	sun_abjtwfukuwddzted.tif	1292047.539992	1292047.798584	1292048.488743	6.589722e-01	5	none	NaN	NaN
 140	7	51	16	bathroom	sun_acduarbnmmoglmiv.tif	1292049.258355	1292049.516944	1292050.207050	7.173621e-01	6	none	NaN	NaN
 140	7	52	53	bathroom	sun_ausgutylgojavyoq.tif	1292050.976722	1292051.235312	1292051.925540	8.341420e-01	43	none	NaN	NaN
 140	7	53	23	bathroom	sun_aghyqhbptboemmoq.tif	1292052.695095	1292052.953677	1292053.643890	7.757521e-01	13	none	NaN	NaN
 140	7	54	17	bathroom	sun_acegryoqftbzowsg.tif	1292054.413457	1292054.672048	1292055.362266	6.673136e-01	7	none	NaN	NaN
 140	7	55	32	bathroom	sun_aleqenyvunhactkl.tif	1292056.131824	1292056.390413	1292057.080554	8.424834e-01	22	37	1292058.191104	1
 140	7	56	37	bathroom	sun_amzlamotzwfkwjco.tif	1292058.967963	1292059.226555	1292059.916780	8.091177e-01	27	none	NaN	NaN
 140	7	57	59	bathroom	sun_axyrejkiiaqiurjk.tif	1292060.686334	1292060.944919	1292061.635120	7.507278e-01	49	37	1292063.079167	0
 140	7	58	41	bathroom	sun_aoybiabnpadelefl.tif	1292063.856133	1292064.114730	1292064.804876	7.006793e-01	31	none	NaN	NaN
 140	7	59	26	bathroom	sun_ahaulkltgpkeeemi.tif	1292065.574505	1292065.833089	1292066.523181	8.091177e-01	16	none	NaN	NaN
 140	7	60	55	bathroom	sun_avhrdrntsqrjzccq.tif	1292067.292873	1292067.551463	1292068.241590	6.756550e-01	45	none	NaN	NaN
 140	7	61	40	bathroom	sun_aofnryafpsjimzsb.tif	1292069.011242	1292069.269827	1292069.959848	7.340450e-01	30	none	NaN	NaN
 140	7	62	33	bathroom	sun_aljolscmmzydegqp.tif	1292070.729606	1292070.988196	1292071.678380	6.923379e-01	23	none	NaN	NaN
 140	7	63	24	bathroom	sun_agrwbmhcpmfuwmsg.tif	1292072.447975	1292072.706563	1292073.396573	7.590692e-01	14	none	NaN	NaN
 140	7	64	39	bathroom	sun_anryaplzeujmzfkd.tif	1292074.166341	1292074.424934	1292075.114945	8.508248e-01	29	none	NaN	NaN
 140	7	65	38	bathroom	sun_anhioqovhscjqqwb.tif	1292075.884709	1292076.143297	1292076.833396	6.589722e-01	28	none	NaN	NaN
 140	7	66	15	bathroom	sun_abjtwfukuwddzted.tif	1292077.603077	1292077.861664	1292078.551894	6.756550e-01	5	none	NaN	NaN
 140	7	67	42	bathroom	sun_apeeialkgkuxddgh.tif	1292079.321443	1292079.580035	1292080.270152	7.840935e-01	32	none	NaN	NaN
 140	7	68	11	bathroom	labelme_sfxiulhjbhlyiyt.tif	1292081.039811	1292081.298401	1292081.988626	8.508248e-01	1	none	NaN	NaN
 140	7	69	12	bathroom	sun_aapitsgbtktqubfy.tif	1292082.758172	1292083.016767	1292083.706974	6.839964e-01	2	none	NaN	NaN
 140	7	70	43	bathroom	sun_apjevzvycyhuqghb.tif	1292084.476544	1292084.735133	1292085.425284	7.257035e-01	33	none	NaN	NaN
 140	7	71	47	bathroom	sun_apynckhmoftszqoq.tif	1292086.194912	1292086.453503	1292087.143571	8.007763e-01	37	37	1292088.247073	1
 140	7	72	34	bathroom	sun_alkosphxlxwjwgjd.tif	1292089.022706	1292089.281298	1292089.971426	7.590692e-01	24	none	NaN	NaN
 140	7	73	30	bathroom	sun_ajlawzvmubibwbpy.tif	1292090.741078	1292090.999661	1292091.689846	7.173621e-01	20	none	NaN	NaN
 140	7	74	56	bathroom	sun_awnqiikzaispgmwo.tif	1292092.459444	1292092.718037	1292093.408208	6.589722e-01	46	none	NaN	NaN
 140	7	75	36	bathroom	sun_ambriybtogmepttm.tif	1292094.177814	1292094.436403	1292095.126550	8.174592e-01	26	none	NaN	NaN
 140	7	76	46	bathroom	sun_apmqjbnwghzuhhzh.tif	1292095.896176	1292096.154774	1292096.844932	6.673136e-01	36	none	NaN	NaN
 140	7	77	14	bathroom	sun_abapwbhyhkfixyex.tif	1292097.614549	1292097.873133	1292098.563273	7.757521e-01	4	none	NaN	NaN
 140	7	78	19	bathroom	sun_aclfzgynxzxlbepz.tif	1292099.332911	1292099.591504	1292100.281683	6.923379e-01	9	none	NaN	NaN
 140	7	79	25	bathroom	sun_agyqfjcfkdcydepw.tif	1292101.051281	1292101.309874	1292102.000006	7.006793e-01	15	none	NaN	NaN
 140	7	80	13	bathroom	sun_aavhrsfjbserjtht.tif	1292102.769648	1292103.028230	1292103.718279	7.257035e-01	3	none	NaN	NaN
 140	7	81	60	bathroom	sun_azqyogdvyhahyram.tif	1292104.488015	1292104.746598	1292105.436659	7.423864e-01	50	none	NaN	NaN
 140	7	82	50	bathroom	sun_aspsyogrekjtfozg.tif	1292106.206387	1292106.464975	1292107.155087	6.506308e-01	40	39	1292109.839020	1
 140	7	83	22	bathroom	sun_agguqiubmwhqqunb.tif	1292110.610745	1292110.869333	1292111.559458	6.589722e-01	12	none	NaN	NaN
 140	7	84	20	bathroom	sun_afcoljnjfoxjtgja.tif	1292112.329111	1292112.587694	1292113.277767	8.258006e-01	10	none	NaN	NaN
 140	7	85	18	bathroom	sun_acgyywnybuveqsro.tif	1292114.047479	1292114.306063	1292114.996165	6.756550e-01	8	none	NaN	NaN
 140	7	86	58	bathroom	sun_axxbkopsgyouuebh.tif	1292115.765842	1292116.024433	1292116.714528	7.757521e-01	48	none	NaN	NaN
 140	7	87	35	bathroom	sun_alotolagknyrgtsk.tif	1292117.484208	1292117.742788	1292118.432992	7.257035e-01	25	none	NaN	NaN
 140	7	88	44	bathroom	sun_apkruvsevgegsdwp.tif	1292119.202574	1292119.461157	1292120.151189	7.006793e-01	34	none	NaN	NaN
 140	7	89	48	bathroom	sun_aqrpegblszgcoujh.tif	1292120.920946	1292121.179535	1292121.869659	7.840935e-01	38	none	NaN	NaN
 140	7	90	45	bathroom	sun_apkxzenqapsujocq.tif	1292122.639310	1292122.897901	1292123.587913	7.840935e-01	35	none	NaN	NaN
 140	7	91	57	bathroom	sun_axldvoqbuvuggfmq.tif	1292124.357675	1292124.616269	1292125.306465	7.090207e-01	47	39	1292129.287119	1
 140	7	92	51	bathroom	sun_atstyziqcmkahyxk.tif	1292130.063325	1292130.321916	1292131.012000	7.173621e-01	41	none	NaN	NaN
 140	7	93	31	bathroom	sun_akiytfaagpdsphgz.tif	1292131.781690	1292132.040282	1292132.730384	7.924349e-01	21	none	NaN	NaN
 140	7	94	29	bathroom	sun_ahqjwnzgolcaoidx.tif	1292133.500059	1292133.758650	1292134.449382	8.258006e-01	19	none	NaN	NaN
 140	7	95	54	bathroom	sun_auzqhkafidnkrwmo.tif	1292135.218431	1292135.477016	1292136.167245	8.424834e-01	44	37	1292137.198959	1
 140	7	96	49	bathroom	sun_asfwthctfqerjvxr.tif	1292137.971149	1292138.229746	1292138.919885	7.757521e-01	39	none	NaN	NaN
 140	7	97	52	bathroom	sun_aunuadmjocsddsrl.tif	1292139.689518	1292139.948109	1292140.638297	7.674106e-01	42	none	NaN	NaN
 140	7	98	28	bathroom	sun_ahijqszoswveeyji.tif	1292141.407887	1292141.666482	1292142.356513	6.839964e-01	18	none	NaN	NaN
 140	7	99	21	bathroom	sun_aggnnqpdorgxpvce.tif	1292143.126251	1292143.384846	1292144.074860	7.090207e-01	11	37	1292149.079036	1
 140	7	100	27	bathroom	sun_ahcvzmoyaycdoftf.tif	1292149.849576	1292150.108155	1292150.798204	7.674106e-01	17	none	NaN	NaN
 140	8	1	66	kitchen	sun_aapllqyqlykszopd.tif	1292169.986170	1292170.244757	1292170.926603	6.756550e-01	56	none	NaN	NaN
 140	8	2	91	kitchen	sun_ahljzhgcdpomplvg.tif	1292171.696193	1292171.954785	1292172.636671	7.590692e-01	81	37	1292173.294880	1
 140	8	3	104	kitchen	sun_auticobqsbwgoppi.tif	1292174.065204	1292174.323799	1292175.005503	8.508248e-01	94	none	NaN	NaN
 140	8	4	109	kitchen	sun_aypmqwcualkenuoe.tif	1292175.775234	1292176.033825	1292176.715569	7.757521e-01	99	none	NaN	NaN
 140	8	5	81	kitchen	sun_aehawpgmrlhlvcow.tif	1292177.485254	1292177.743822	1292178.425729	7.090207e-01	71	37	1292179.054961	1
 140	8	6	101	kitchen	sun_aqeaevwwwjoqhzvl.tif	1292179.829249	1292180.087830	1292180.769701	7.257035e-01	91	none	NaN	NaN
 140	8	7	85	kitchen	sun_afuyedyxivkhecmu.tif	1292181.539269	1292181.797863	1292182.479697	8.258006e-01	75	none	NaN	NaN
 140	8	8	83	kitchen	sun_aeqdocilnnpuvuhx.tif	1292183.249294	1292183.507885	1292184.189582	6.923379e-01	73	none	NaN	NaN
 140	8	9	80	kitchen	sun_aegoxogugdkwpmpj.tif	1292184.959321	1292185.217909	1292185.899616	8.091177e-01	70	none	NaN	NaN
 140	8	10	86	kitchen	sun_aggjlwcdjsjcaemh.tif	1292186.669351	1292186.927937	1292187.609836	6.673136e-01	76	39	1292188.855016	1
 140	8	11	65	kitchen	sun_aamedkxepzlwuxes.tif	1292189.630609	1292189.889202	1292190.570974	7.006793e-01	55	none	NaN	NaN
 140	8	12	98	kitchen	sun_akchetnepxlcxhsu.tif	1292191.340640	1292191.599230	1292192.281118	7.006793e-01	88	none	NaN	NaN
 140	8	13	77	kitchen	sun_acxkpeoqbwcxfvip.tif	1292193.050665	1292193.309254	1292193.991007	8.007763e-01	67	none	NaN	NaN
 140	8	14	96	kitchen	sun_ajcbwwvdlsvjyzje.tif	1292194.760689	1292195.019273	1292195.700947	8.258006e-01	86	none	NaN	NaN
 140	8	15	84	kitchen	sun_aexklacwqwezaorf.tif	1292196.470714	1292196.729304	1292197.411031	7.257035e-01	74	39	1292200.838941	1
 140	8	16	79	kitchen	sun_admlmbcdswaszruo.tif	1292201.617471	1292201.876063	1292202.557827	7.507278e-01	69	none	NaN	NaN
 140	8	17	89	kitchen	sun_agzzivivdpnawacl.tif	1292203.327497	1292203.586088	1292204.267835	8.424834e-01	79	37	1292205.190892	1
 140	8	18	92	kitchen	sun_ahpczsiumwwocjkv.tif	1292205.963443	1292206.222023	1292206.903829	8.424834e-01	82	none	NaN	NaN
 140	8	19	93	kitchen	sun_ahspylgoovwmwvgk.tif	1292207.673466	1292207.932056	1292208.613759	7.757521e-01	83	39	1292211.590939	1
 140	8	20	87	kitchen	sun_agorklincwxrdtga.tif	1292212.361441	1292212.620034	1292213.301826	7.840935e-01	77	37	1292214.742841	1
 140	8	21	68	kitchen	sun_aaxxjlsuzvqlgylf.tif	1292215.514558	1292215.773150	1292216.454817	6.839964e-01	58	none	NaN	NaN
 140	8	22	76	kitchen	sun_acwjdupvyjsugpay.tif	1292217.224584	1292217.483172	1292218.164992	6.589722e-01	66	none	NaN	NaN
 140	8	23	67	kitchen	sun_aarfiyshqohlwkmo.tif	1292218.934614	1292219.193201	1292219.875048	6.589722e-01	57	none	NaN	NaN
 140	8	24	97	kitchen	sun_ajkqhtgcbgpcwrwn.tif	1292220.644635	1292220.903226	1292221.584916	7.507278e-01	87	none	NaN	NaN
 140	8	25	110	kitchen	sun_azmutvzbxypaceni.tif	1292222.354662	1292222.613254	1292223.295128	7.173621e-01	100	none	NaN	NaN
 140	8	26	105	kitchen	sun_avszsnwsbuqfgzbn.tif	1292224.064688	1292224.323270	1292225.004989	7.840935e-01	95	none	NaN	NaN
 140	8	27	70	kitchen	sun_abdxkyyxwfskuaqb.tif	1292225.774710	1292226.033302	1292226.715064	8.508248e-01	60	none	NaN	NaN
 140	8	28	69	kitchen	sun_abdenxonkemggwsq.tif	1292227.484738	1292227.743326	1292228.425149	7.507278e-01	59	none	NaN	NaN
 140	8	29	64	kitchen	sun_aadbddgrdsjugojn.tif	1292229.194766	1292229.453359	1292230.135183	8.424834e-01	54	none	NaN	NaN
 140	8	30	72	kitchen	sun_abpwyqmlzafvklqo.tif	1292230.904794	1292231.163379	1292231.845140	7.674106e-01	62	none	NaN	NaN
 140	8	31	71	kitchen	sun_abftihopvusyfakt.tif	1292232.614816	1292232.873398	1292233.555290	7.590692e-01	61	none	NaN	NaN
 140	8	32	108	kitchen	sun_aymvwlarqodbwuoc.tif	1292234.324842	1292234.583429	1292235.265111	8.341420e-01	98	none	NaN	NaN
 140	8	33	102	kitchen	sun_auaiucuqpdausiva.tif	1292236.034864	1292236.293457	1292236.975135	7.340450e-01	92	none	NaN	NaN
 140	8	34	75	kitchen	sun_acgtpgfybqjmzeyw.tif	1292237.744894	1292238.003480	1292238.685164	7.924349e-01	65	none	NaN	NaN
 140	8	35	100	kitchen	sun_amjjdeyrggfqgmom.tif	1292239.454920	1292239.713510	1292240.395321	8.258006e-01	90	none	NaN	NaN
 140	8	36	74	kitchen	sun_acfmftudsenhrfhy.tif	1292241.164944	1292241.423534	1292242.105215	7.674106e-01	64	none	NaN	NaN
 140	8	37	73	kitchen	sun_abrcnpqqhmjwekyf.tif	1292242.874977	1292243.133560	1292243.815417	8.007763e-01	63	none	NaN	NaN
 140	8	38	94	kitchen	sun_ahywdevtimnqcsln.tif	1292244.584993	1292244.843583	1292245.525302	8.174592e-01	84	none	NaN	NaN
 140	8	39	106	kitchen	sun_awcpdzzznmweyyhv.tif	1292246.295024	1292246.553611	1292247.235485	6.923379e-01	96	none	NaN	NaN
 140	8	40	103	kitchen	sun_aunzlwrbjumxhwdj.tif	1292248.005046	1292248.263638	1292248.945400	7.173621e-01	93	none	NaN	NaN
 140	8	41	99	kitchen	sun_akcjzhbbjlbogpdi.tif	1292249.715073	1292249.973664	1292250.655388	7.423864e-01	89	none	NaN	NaN
 140	8	42	63	kitchen	labelme_rykdqxenmhulbdn.tif	1292251.425096	1292251.683687	1292252.365506	8.258006e-01	53	none	NaN	NaN
 140	8	43	61	kitchen	labelme_brsyyvweiuaazfr.tif	1292253.135124	1292253.393714	1292254.075555	7.507278e-01	51	none	NaN	NaN
 140	8	44	88	kitchen	sun_agubuxuukhzyzpdp.tif	1292254.836804	1292255.095400	1292255.777088	7.590692e-01	78	none	NaN	NaN
 140	8	45	95	kitchen	sun_aixorpehvfykdynp.tif	1292256.546835	1292256.805420	1292257.487263	7.090207e-01	85	none	NaN	NaN
 140	8	46	62	kitchen	labelme_kxvouciolcpqplr.tif	1292258.256860	1292258.515444	1292259.197251	7.840935e-01	52	none	NaN	NaN
 140	8	47	78	kitchen	sun_adgqasybjyktddhj.tif	1292259.966885	1292260.225474	1292260.907302	8.424834e-01	68	none	NaN	NaN
 140	8	48	82	kitchen	sun_aenotlpyftoioydp.tif	1292261.676911	1292261.935494	1292262.617375	6.756550e-01	72	37	1292266.063023	1
 140	8	49	90	kitchen	sun_ahdycvpopffkzzsu.tif	1292266.840353	1292267.098941	1292267.780632	7.423864e-01	80	none	NaN	NaN
 140	8	50	107	kitchen	sun_axyyrmzcupyhlivc.tif	1292268.550387	1292268.808968	1292269.490688	6.839964e-01	97	none	NaN	NaN
 140	8	51	109	kitchen	sun_aypmqwcualkenuoe.tif	1292270.260402	1292270.518994	1292271.200779	7.757521e-01	99	none	NaN	NaN
 140	8	52	75	kitchen	sun_acgtpgfybqjmzeyw.tif	1292271.970432	1292272.229016	1292272.910749	7.173621e-01	65	none	NaN	NaN
 140	8	53	76	kitchen	sun_acwjdupvyjsugpay.tif	1292273.680455	1292273.939041	1292274.620866	6.756550e-01	66	none	NaN	NaN
 140	8	54	66	kitchen	sun_aapllqyqlykszopd.tif	1292275.390483	1292275.649070	1292276.330844	6.506308e-01	56	none	NaN	NaN
 140	8	55	107	kitchen	sun_axyyrmzcupyhlivc.tif	1292277.100509	1292277.359096	1292278.040925	7.006793e-01	97	37	1292282.102933	1
 140	8	56	64	kitchen	sun_aadbddgrdsjugojn.tif	1292282.881226	1292283.139819	1292283.821579	8.258006e-01	54	37	1292284.870911	1
 140	8	57	101	kitchen	sun_aqeaevwwwjoqhzvl.tif	1292285.642299	1292285.900882	1292286.582763	6.923379e-01	91	none	NaN	NaN
 140	8	58	79	kitchen	sun_admlmbcdswaszruo.tif	1292287.352319	1292287.610910	1292288.292577	7.257035e-01	69	none	NaN	NaN
 140	8	59	61	kitchen	labelme_brsyyvweiuaazfr.tif	1292289.062348	1292289.320936	1292290.002624	7.590692e-01	51	none	NaN	NaN
 140	8	60	92	kitchen	sun_ahpczsiumwwocjkv.tif	1292290.772372	1292291.030963	1292291.712847	7.590692e-01	82	none	NaN	NaN
 140	8	61	63	kitchen	labelme_rykdqxenmhulbdn.tif	1292292.482395	1292292.740986	1292293.422837	7.340450e-01	53	none	NaN	NaN
 140	8	62	93	kitchen	sun_ahspylgoovwmwvgk.tif	1292294.192425	1292294.451013	1292295.132747	7.257035e-01	83	none	NaN	NaN
 140	8	63	106	kitchen	sun_awcpdzzznmweyyhv.tif	1292295.902448	1292296.161033	1292296.842892	6.923379e-01	96	none	NaN	NaN
 140	8	64	83	kitchen	sun_aeqdocilnnpuvuhx.tif	1292297.612466	1292297.871066	1292298.552895	6.839964e-01	73	none	NaN	NaN
 140	8	65	70	kitchen	sun_abdxkyyxwfskuaqb.tif	1292299.322502	1292299.581093	1292300.262865	7.006793e-01	60	none	NaN	NaN
 140	8	66	84	kitchen	sun_aexklacwqwezaorf.tif	1292301.032526	1292301.291111	1292301.972998	7.757521e-01	74	none	NaN	NaN
 140	8	67	78	kitchen	sun_adgqasybjyktddhj.tif	1292302.742552	1292303.001141	1292303.682961	7.924349e-01	68	none	NaN	NaN
 140	8	68	77	kitchen	sun_acxkpeoqbwcxfvip.tif	1292304.452577	1292304.711164	1292305.392952	7.840935e-01	67	none	NaN	NaN
 140	8	69	74	kitchen	sun_acfmftudsenhrfhy.tif	1292306.162604	1292306.421193	1292307.102980	8.091177e-01	64	none	NaN	NaN
 140	8	70	94	kitchen	sun_ahywdevtimnqcsln.tif	1292307.872629	1292308.131215	1292308.813029	7.090207e-01	84	37	1292313.334949	0
 140	8	71	95	kitchen	sun_aixorpehvfykdynp.tif	1292314.112133	1292314.370725	1292315.052469	6.673136e-01	85	39	1292316.694799	1
 140	8	72	73	kitchen	sun_abrcnpqqhmjwekyf.tif	1292317.465454	1292317.724057	1292318.405860	8.007763e-01	63	37	1292319.230927	1
 140	8	73	88	kitchen	sun_agubuxuukhzyzpdp.tif	1292320.001298	1292320.259887	1292320.941719	8.174592e-01	78	none	NaN	NaN
 140	8	74	98	kitchen	sun_akchetnepxlcxhsu.tif	1292321.711324	1292321.969911	1292322.651775	8.007763e-01	88	none	NaN	NaN
 140	8	75	80	kitchen	sun_aegoxogugdkwpmpj.tif	1292323.421349	1292323.679938	1292324.361749	6.673136e-01	70	39	1292329.174625	1
 140	8	76	65	kitchen	sun_aamedkxepzlwuxes.tif	1292329.952813	1292330.211400	1292330.893185	7.674106e-01	55	none	NaN	NaN
 140	8	77	103	kitchen	sun_aunzlwrbjumxhwdj.tif	1292331.662835	1292331.921429	1292332.603274	7.423864e-01	93	none	NaN	NaN
 140	8	78	86	kitchen	sun_aggjlwcdjsjcaemh.tif	1292333.372868	1292333.631451	1292334.313298	8.091177e-01	76	none	NaN	NaN
 140	8	79	71	kitchen	sun_abftihopvusyfakt.tif	1292335.082871	1292335.341479	1292336.023240	7.423864e-01	61	none	NaN	NaN
 140	8	80	81	kitchen	sun_aehawpgmrlhlvcow.tif	1292336.792914	1292337.051502	1292337.733263	8.341420e-01	71	none	NaN	NaN
 140	8	81	96	kitchen	sun_ajcbwwvdlsvjyzje.tif	1292338.502939	1292338.761525	1292339.443293	6.589722e-01	86	none	NaN	NaN
 140	8	82	102	kitchen	sun_auaiucuqpdausiva.tif	1292340.212961	1292340.471555	1292341.153378	6.923379e-01	92	none	NaN	NaN
 140	8	83	62	kitchen	labelme_kxvouciolcpqplr.tif	1292341.922986	1292342.181578	1292342.863415	7.340450e-01	52	none	NaN	NaN
 140	8	84	108	kitchen	sun_aymvwlarqodbwuoc.tif	1292343.633017	1292343.891607	1292344.573489	6.589722e-01	98	none	NaN	NaN
 140	8	85	72	kitchen	sun_abpwyqmlzafvklqo.tif	1292345.343042	1292345.601629	1292346.283408	8.174592e-01	62	none	NaN	NaN
 140	8	86	87	kitchen	sun_agorklincwxrdtga.tif	1292347.053068	1292347.311660	1292347.993326	7.340450e-01	77	none	NaN	NaN
 140	8	87	90	kitchen	sun_ahdycvpopffkzzsu.tif	1292348.763092	1292349.021687	1292349.703470	7.924349e-01	80	none	NaN	NaN
 140	8	88	82	kitchen	sun_aenotlpyftoioydp.tif	1292350.473121	1292350.731705	1292351.413593	6.839964e-01	72	none	NaN	NaN
 140	8	89	100	kitchen	sun_amjjdeyrggfqgmom.tif	1292352.183143	1292352.441732	1292353.123428	7.173621e-01	90	39	1292356.006568	1
 140	8	90	67	kitchen	sun_aarfiyshqohlwkmo.tif	1292356.779363	1292357.037946	1292357.719739	7.090207e-01	57	none	NaN	NaN
 140	8	91	104	kitchen	sun_auticobqsbwgoppi.tif	1292358.489385	1292358.747974	1292359.429751	8.091177e-01	94	none	NaN	NaN
 140	8	92	110	kitchen	sun_azmutvzbxypaceni.tif	1292360.191067	1292360.449658	1292361.131338	7.674106e-01	100	none	NaN	NaN
 140	8	93	105	kitchen	sun_avszsnwsbuqfgzbn.tif	1292361.901095	1292362.159682	1292362.841559	8.174592e-01	95	none	NaN	NaN
 140	8	94	97	kitchen	sun_ajkqhtgcbgpcwrwn.tif	1292363.611123	1292363.869709	1292364.551506	8.341420e-01	87	none	NaN	NaN
 140	8	95	85	kitchen	sun_afuyedyxivkhecmu.tif	1292365.321145	1292365.579738	1292366.261501	8.341420e-01	75	none	NaN	NaN
 140	8	96	89	kitchen	sun_agzzivivdpnawacl.tif	1292367.031175	1292367.289761	1292367.971650	7.924349e-01	79	none	NaN	NaN
 140	8	97	91	kitchen	sun_ahljzhgcdpomplvg.tif	1292368.741199	1292368.999788	1292369.681581	6.673136e-01	81	none	NaN	NaN
 140	8	98	99	kitchen	sun_akcjzhbbjlbogpdi.tif	1292370.451224	1292370.709810	1292371.391575	6.506308e-01	89	none	NaN	NaN
 140	8	99	68	kitchen	sun_aaxxjlsuzvqlgylf.tif	1292372.161249	1292372.419839	1292373.101541	6.756550e-01	58	none	NaN	NaN
 140	8	100	69	kitchen	sun_abdenxonkemggwsq.tif	1292373.871274	1292374.129864	1292374.811529	6.506308e-01	59	none	NaN	NaN
 140	9	1	11	bathroom	labelme_sfxiulhjbhlyiyt.tif	1292395.125644	1292395.384232	1292396.032706	7.757521e-01	1	none	NaN	NaN
 140	9	2	24	bathroom	sun_agrwbmhcpmfuwmsg.tif	1292396.802304	1292397.060894	1292397.709256	8.508248e-01	14	none	NaN	NaN
 140	9	3	60	bathroom	sun_azqyogdvyhahyram.tif	1292398.478962	1292398.737549	1292399.386034	7.006793e-01	50	none	NaN	NaN
 140	9	4	19	bathroom	sun_aclfzgynxzxlbepz.tif	1292400.155619	1292400.414215	1292401.062595	7.924349e-01	9	none	NaN	NaN
 140	9	5	14	bathroom	sun_abapwbhyhkfixyex.tif	1292401.832279	1292402.090873	1292402.739289	8.174592e-01	4	none	NaN	NaN
 140	9	6	15	bathroom	sun_abjtwfukuwddzted.tif	1292403.508940	1292403.767524	1292404.415901	6.923379e-01	5	39	1292405.606725	1
 140	9	7	21	bathroom	sun_aggnnqpdorgxpvce.tif	1292406.378443	1292406.637033	1292407.285391	7.507278e-01	11	none	NaN	NaN
 140	9	8	38	bathroom	sun_anhioqovhscjqqwb.tif	1292408.055105	1292408.313693	1292408.962170	6.506308e-01	28	none	NaN	NaN
 140	9	9	44	bathroom	sun_apkruvsevgegsdwp.tif	1292409.731765	1292409.990358	1292410.638662	6.589722e-01	34	none	NaN	NaN
 140	9	10	56	bathroom	sun_awnqiikzaispgmwo.tif	1292411.408424	1292411.667013	1292412.315370	6.589722e-01	46	none	NaN	NaN
 140	9	11	16	bathroom	sun_acduarbnmmoglmiv.tif	1292413.085080	1292413.343668	1292413.992087	8.258006e-01	6	none	NaN	NaN
 140	9	12	45	bathroom	sun_apkxzenqapsujocq.tif	1292414.761744	1292415.020334	1292415.668731	8.007763e-01	35	none	NaN	NaN
 140	9	13	18	bathroom	sun_acgyywnybuveqsro.tif	1292416.438404	1292416.696990	1292417.345367	8.424834e-01	8	none	NaN	NaN
 140	9	14	20	bathroom	sun_afcoljnjfoxjtgja.tif	1292418.115058	1292418.373647	1292419.022102	7.757521e-01	10	37	1292419.974540	1
 140	9	15	49	bathroom	sun_asfwthctfqerjvxr.tif	1292420.751000	1292421.009594	1292421.658073	8.091177e-01	39	none	NaN	NaN
 140	9	16	31	bathroom	sun_akiytfaagpdsphgz.tif	1292422.427661	1292422.686250	1292423.334616	7.590692e-01	21	none	NaN	NaN
 140	9	17	17	bathroom	sun_acegryoqftbzowsg.tif	1292424.104318	1292424.362908	1292425.011436	7.423864e-01	7	none	NaN	NaN
 140	9	18	54	bathroom	sun_auzqhkafidnkrwmo.tif	1292425.780979	1292426.039573	1292426.687872	8.508248e-01	44	none	NaN	NaN
 140	9	19	50	bathroom	sun_aspsyogrekjtfozg.tif	1292427.449295	1292427.707885	1292428.356267	8.174592e-01	40	none	NaN	NaN
 140	9	20	34	bathroom	sun_alkosphxlxwjwgjd.tif	1292429.125955	1292429.384543	1292430.032950	7.340450e-01	24	37	1292431.246686	1
 140	9	21	53	bathroom	sun_ausgutylgojavyoq.tif	1292432.020493	1292432.279080	1292432.927577	6.839964e-01	43	none	NaN	NaN
