subject	block	trial	texture	category	image	trialOnset	itiOnset	trialEnd	iti	EEGtrigger	responseKey	responseTime	accuracy
117	1	1	13	bathroom	sun_aavhrsfjbserjtht.tif	1362407.726150	1362407.984734	1362408.724854	7.507075e-01	3	none	NaN	NaN
117	1	2	49	bathroom	sun_asfwthctfqerjvxr.tif	1362409.494566	1362409.753154	1362410.493226	8.424606e-01	39	none	NaN	NaN
117	1	3	25	bathroom	sun_agyqfjcfkdcydepw.tif	1362411.262983	1362411.521575	1362412.261820	6.589543e-01	15	39	1362415.543342	1
117	1	4	38	bathroom	sun_anhioqovhscjqqwb.tif	1362416.317998	1362416.576584	1362417.316700	7.840722e-01	28	none	NaN	NaN
117	1	5	37	bathroom	sun_amzlamotzwfkwjco.tif	1362418.086409	1362418.345003	1362419.085045	7.173427e-01	27	none	NaN	NaN
117	1	6	16	bathroom	sun_acduarbnmmoglmiv.tif	1362419.854828	1362420.113418	1362420.853476	6.923191e-01	6	none	NaN	NaN
117	1	7	41	bathroom	sun_aoybiabnpadelefl.tif	1362421.614906	1362421.873495	1362422.613754	6.923191e-01	31	39	1362425.591408	1
117	1	8	55	bathroom	sun_avhrdrntsqrjzccq.tif	1362426.369617	1362426.628232	1362427.368311	6.923191e-01	45	none	NaN	NaN
117	1	9	60	bathroom	sun_azqyogdvyhahyram.tif	1362428.138033	1362428.396624	1362429.136809	7.423663e-01	50	37	1362433.431486	1
117	1	10	29	bathroom	sun_ahqjwnzgolcaoidx.tif	1362434.202375	1362434.460962	1362435.201138	7.340251e-01	19	none	NaN	NaN
117	1	11	15	bathroom	sun_abjtwfukuwddzted.tif	1362435.970795	1362436.229384	1362436.969472	8.341194e-01	5	37	1362438.159485	1
117	1	12	39	bathroom	sun_anryaplzeujmzfkd.tif	1362438.932058	1362439.190651	1362439.930753	6.756367e-01	29	none	NaN	NaN
117	1	13	17	bathroom	sun_acegryoqftbzowsg.tif	1362440.700478	1362440.959067	1362441.699239	8.090958e-01	7	none	NaN	NaN
117	1	14	30	bathroom	sun_ajlawzvmubibwbpy.tif	1362442.468894	1362442.727488	1362443.467549	8.174370e-01	20	none	NaN	NaN
117	1	15	23	bathroom	sun_aghyqhbptboemmoq.tif	1362444.237315	1362444.495903	1362445.235942	7.840722e-01	13	none	NaN	NaN
117	1	16	53	bathroom	sun_ausgutylgojavyoq.tif	1362446.005736	1362446.264326	1362447.004409	7.507075e-01	43	none	NaN	NaN
117	1	17	59	bathroom	sun_axyrejkiiaqiurjk.tif	1362447.774152	1362448.032748	1362448.772905	7.423663e-01	49	none	NaN	NaN
117	1	18	58	bathroom	sun_axxbkopsgyouuebh.tif	1362449.542576	1362449.801165	1362450.541368	7.340251e-01	48	none	NaN	NaN
117	1	19	14	bathroom	sun_abapwbhyhkfixyex.tif	1362451.310989	1362451.569580	1362452.309632	7.090015e-01	4	none	NaN	NaN
117	1	20	33	bathroom	sun_aljolscmmzydegqp.tif	1362453.079412	1362453.337998	1362454.078140	6.923191e-01	23	none	NaN	NaN
117	1	21	46	bathroom	sun_apmqjbnwghzuhhzh.tif	1362454.847828	1362455.106417	1362455.846575	7.340251e-01	36	39	1362458.495925	1
117	1	22	18	bathroom	sun_acgyywnybuveqsro.tif	1362459.268872	1362459.527464	1362460.267663	6.756367e-01	8	none	NaN	NaN
117	1	23	19	bathroom	sun_aclfzgynxzxlbepz.tif	1362461.037289	1362461.295880	1362462.036061	7.757310e-01	9	none	NaN	NaN
117	1	24	11	bathroom	labelme_sfxiulhjbhlyiyt.tif	1362462.805711	1362463.064300	1362463.804533	6.672955e-01	1	39	1362467.167351	1
117	1	25	27	bathroom	sun_ahcvzmoyaycdoftf.tif	1362467.944137	1362468.202722	1362468.942778	8.257782e-01	17	none	NaN	NaN
117	1	26	21	bathroom	sun_aggnnqpdorgxpvce.tif	1362469.712557	1362469.971140	1362470.711379	7.590487e-01	11	none	NaN	NaN
117	1	27	42	bathroom	sun_apeeialkgkuxddgh.tif	1362471.480971	1362471.739561	1362472.479815	7.590487e-01	32	none	NaN	NaN
117	1	28	56	bathroom	sun_awnqiikzaispgmwo.tif	1362473.249389	1362473.507975	1362474.248144	8.174370e-01	46	none	NaN	NaN
117	1	29	44	bathroom	sun_apkruvsevgegsdwp.tif	1362475.017804	1362475.276395	1362476.016441	7.423663e-01	34	none	NaN	NaN
117	1	30	20	bathroom	sun_afcoljnjfoxjtgja.tif	1362476.786226	1362477.044814	1362477.784932	7.173427e-01	10	none	NaN	NaN
117	1	31	28	bathroom	sun_ahijqszoswveeyji.tif	1362478.554646	1362478.813232	1362479.553388	8.424606e-01	18	none	NaN	NaN
117	1	32	26	bathroom	sun_ahaulkltgpkeeemi.tif	1362480.323062	1362480.581652	1362481.321826	7.673898e-01	16	none	NaN	NaN
117	1	33	22	bathroom	sun_agguqiubmwhqqunb.tif	1362482.091478	1362482.350068	1362483.090220	6.923191e-01	12	none	NaN	NaN
117	1	34	47	bathroom	sun_apynckhmoftszqoq.tif	1362483.859899	1362484.118488	1362484.858524	7.590487e-01	37	none	NaN	NaN
117	1	35	45	bathroom	sun_apkxzenqapsujocq.tif	1362485.619977	1362485.878563	1362486.618629	8.174370e-01	35	none	NaN	NaN
117	1	36	34	bathroom	sun_alkosphxlxwjwgjd.tif	1362487.388394	1362487.646984	1362488.387157	8.341194e-01	24	none	NaN	NaN
117	1	37	12	bathroom	sun_aapitsgbtktqubfy.tif	1362489.156812	1362489.415400	1362490.155589	8.090958e-01	2	none	NaN	NaN
117	1	38	52	bathroom	sun_aunuadmjocsddsrl.tif	1362490.925233	1362491.183824	1362491.923912	7.090015e-01	42	none	NaN	NaN
117	1	39	50	bathroom	sun_aspsyogrekjtfozg.tif	1362492.693649	1362492.952234	1362493.692302	7.924134e-01	40	none	NaN	NaN
117	1	40	54	bathroom	sun_auzqhkafidnkrwmo.tif	1362494.462068	1362494.720659	1362495.460842	6.506131e-01	44	none	NaN	NaN
117	1	41	31	bathroom	sun_akiytfaagpdsphgz.tif	1362496.230483	1362496.489076	1362497.229199	6.589543e-01	21	37	1362499.055314	0
117	1	42	48	bathroom	sun_aqrpegblszgcoujh.tif	1362499.825716	1362500.084301	1362500.824423	8.090958e-01	38	none	NaN	NaN
117	1	43	35	bathroom	sun_alotolagknyrgtsk.tif	1362501.594135	1362501.852720	1362502.592780	8.007546e-01	25	none	NaN	NaN
117	1	44	24	bathroom	sun_agrwbmhcpmfuwmsg.tif	1362503.362552	1362503.621145	1362504.361329	7.256839e-01	14	none	NaN	NaN
117	1	45	40	bathroom	sun_aofnryafpsjimzsb.tif	1362505.130967	1362505.389554	1362506.129749	7.840722e-01	30	none	NaN	NaN
117	1	46	36	bathroom	sun_ambriybtogmepttm.tif	1362506.899390	1362507.157981	1362507.898194	7.757310e-01	26	none	NaN	NaN
117	1	47	57	bathroom	sun_axldvoqbuvuggfmq.tif	1362508.667811	1362508.926397	1362509.666530	8.257782e-01	47	none	NaN	NaN
117	1	48	43	bathroom	sun_apjevzvycyhuqghb.tif	1362510.436222	1362510.694818	1362511.434922	6.506131e-01	33	none	NaN	NaN
117	1	49	32	bathroom	sun_aleqenyvunhactkl.tif	1362512.204643	1362512.463231	1362513.203384	7.006603e-01	22	none	NaN	NaN
117	1	50	51	bathroom	sun_atstyziqcmkahyxk.tif	1362513.973060	1362514.231652	1362514.971863	8.007546e-01	41	none	NaN	NaN
117	1	51	59	bathroom	sun_axyrejkiiaqiurjk.tif	1362515.741481	1362516.000067	1362516.740169	7.006603e-01	49	none	NaN	NaN
117	1	52	11	bathroom	labelme_sfxiulhjbhlyiyt.tif	1362517.509898	1362517.768488	1362518.508560	7.340251e-01	1	none	NaN	NaN
117	1	53	25	bathroom	sun_agyqfjcfkdcydepw.tif	1362519.278317	1362519.536906	1362520.277155	7.507075e-01	15	none	NaN	NaN
117	1	54	16	bathroom	sun_acduarbnmmoglmiv.tif	1362521.046734	1362521.305321	1362522.045452	7.173427e-01	6	none	NaN	NaN
117	1	55	21	bathroom	sun_aggnnqpdorgxpvce.tif	1362522.815158	1362523.073743	1362523.813790	7.590487e-01	11	none	NaN	NaN
117	1	56	51	bathroom	sun_atstyziqcmkahyxk.tif	1362524.575233	1362524.833817	1362525.574011	7.924134e-01	41	none	NaN	NaN
117	1	57	32	bathroom	sun_aleqenyvunhactkl.tif	1362526.343647	1362526.602238	1362527.342316	7.924134e-01	22	none	NaN	NaN
117	1	58	33	bathroom	sun_aljolscmmzydegqp.tif	1362528.112064	1362528.370658	1362529.110831	7.673898e-01	23	none	NaN	NaN
117	1	59	18	bathroom	sun_acgyywnybuveqsro.tif	1362529.880488	1362530.139075	1362530.879125	7.090015e-01	8	none	NaN	NaN
117	1	60	36	bathroom	sun_ambriybtogmepttm.tif	1362531.648841	1362531.907497	1362532.647636	7.840722e-01	26	none	NaN	NaN
117	1	61	13	bathroom	sun_aavhrsfjbserjtht.tif	1362533.417320	1362533.675915	1362534.416085	8.508018e-01	3	none	NaN	NaN
117	1	62	56	bathroom	sun_awnqiikzaispgmwo.tif	1362535.185739	1362535.444334	1362536.184427	7.757310e-01	46	37	1362538.007181	0
117	1	63	14	bathroom	sun_abapwbhyhkfixyex.tif	1362538.780967	1362539.039555	1362539.779756	6.589543e-01	4	none	NaN	NaN
117	1	64	45	bathroom	sun_apkxzenqapsujocq.tif	1362540.549390	1362540.807977	1362541.548231	8.090958e-01	35	none	NaN	NaN
117	1	65	38	bathroom	sun_anhioqovhscjqqwb.tif	1362542.317806	1362542.576393	1362543.316609	8.257782e-01	28	37	1362545.591430	1
117	1	66	44	bathroom	sun_apkruvsevgegsdwp.tif	1362546.363478	1362546.622066	1362547.362185	8.007546e-01	34	37	1362548.759289	1
117	1	67	35	bathroom	sun_alotolagknyrgtsk.tif	1362549.533284	1362549.791875	1362550.532111	6.672955e-01	25	none	NaN	NaN
117	1	68	55	bathroom	sun_avhrdrntsqrjzccq.tif	1362551.301703	1362551.560296	1362552.300512	6.756367e-01	45	39	1362553.911496	1
117	1	69	22	bathroom	sun_agguqiubmwhqqunb.tif	1362554.688392	1362554.946980	1362555.687177	6.839779e-01	12	none	NaN	NaN
117	1	70	24	bathroom	sun_agrwbmhcpmfuwmsg.tif	1362556.456813	1362556.715401	1362557.455459	7.423663e-01	14	none	NaN	NaN
117	1	71	47	bathroom	sun_apynckhmoftszqoq.tif	1362558.225228	1362558.483819	1362559.224021	8.341194e-01	37	none	NaN	NaN
117	1	72	53	bathroom	sun_ausgutylgojavyoq.tif	1362559.993649	1362560.252237	1362560.992438	7.590487e-01	43	none	NaN	NaN
117	1	73	15	bathroom	sun_abjtwfukuwddzted.tif	1362561.762063	1362562.020654	1362562.760830	8.007546e-01	5	none	NaN	NaN
117	1	74	28	bathroom	sun_ahijqszoswveeyji.tif	1362563.530479	1362563.789075	1362564.529232	7.256839e-01	18	none	NaN	NaN
117	1	75	26	bathroom	sun_ahaulkltgpkeeemi.tif	1362565.298900	1362565.557491	1362566.297689	8.174370e-01	16	37	1362567.535326	1
117	1	76	58	bathroom	sun_axxbkopsgyouuebh.tif	1362568.310216	1362568.568806	1362569.309046	6.839779e-01	48	none	NaN	NaN
117	1	77	17	bathroom	sun_acegryoqftbzowsg.tif	1362570.078639	1362570.337229	1362571.077393	6.839779e-01	7	37	1362572.503475	1
117	1	78	54	bathroom	sun_auzqhkafidnkrwmo.tif	1362573.281811	1362573.540399	1362574.280497	8.341194e-01	44	none	NaN	NaN
117	1	79	30	bathroom	sun_ajlawzvmubibwbpy.tif	1362575.050225	1362575.308818	1362576.048911	7.173427e-01	20	none	NaN	NaN
117	1	80	19	bathroom	sun_aclfzgynxzxlbepz.tif	1362576.818646	1362577.077236	1362577.817417	8.257782e-01	9	none	NaN	NaN
117	1	81	60	bathroom	sun_azqyogdvyhahyram.tif	1362578.587063	1362578.845660	1362579.585838	7.256839e-01	50	none	NaN	NaN
117	1	82	50	bathroom	sun_aspsyogrekjtfozg.tif	1362580.355484	1362580.614071	1362581.354288	7.757310e-01	40	none	NaN	NaN
117	1	83	42	bathroom	sun_apeeialkgkuxddgh.tif	1362582.123901	1362582.382487	1362583.122583	7.006603e-01	32	none	NaN	NaN
117	1	84	49	bathroom	sun_asfwthctfqerjvxr.tif	1362583.892323	1362584.150911	1362584.891032	7.673898e-01	39	none	NaN	NaN
117	1	85	27	bathroom	sun_ahcvzmoyaycdoftf.tif	1362585.660742	1362585.919327	1362586.659444	7.006603e-01	17	none	NaN	NaN
117	1	86	12	bathroom	sun_aapitsgbtktqubfy.tif	1362587.429155	1362587.687746	1362588.428002	7.256839e-01	2	none	NaN	NaN
117	1	87	23	bathroom	sun_aghyqhbptboemmoq.tif	1362589.197573	1362589.456163	1362590.196412	6.506131e-01	13	37	1362593.375388	0
117	1	88	20	bathroom	sun_afcoljnjfoxjtgja.tif	1362594.152479	1362594.411071	1362595.151130	8.424606e-01	10	none	NaN	NaN
117	1	89	40	bathroom	sun_aofnryafpsjimzsb.tif	1362595.920899	1362596.179489	1362596.919614	6.589543e-01	30	none	NaN	NaN
117	1	90	39	bathroom	sun_anryaplzeujmzfkd.tif	1362597.689320	1362597.947904	1362598.688120	6.839779e-01	29	none	NaN	NaN
117	1	91	43	bathroom	sun_apjevzvycyhuqghb.tif	1362599.457738	1362599.716325	1362600.456520	8.257782e-01	33	none	NaN	NaN
117	1	92	34	bathroom	sun_alkosphxlxwjwgjd.tif	1362601.226159	1362601.484747	1362602.224913	6.672955e-01	24	none	NaN	NaN
117	1	93	41	bathroom	sun_aoybiabnpadelefl.tif	1362602.994574	1362603.253161	1362603.993400	8.424606e-01	31	none	NaN	NaN
117	1	94	46	bathroom	sun_apmqjbnwghzuhhzh.tif	1362604.762993	1362605.021586	1362605.761768	6.756367e-01	36	none	NaN	NaN
117	1	95	57	bathroom	sun_axldvoqbuvuggfmq.tif	1362606.531410	1362606.790004	1362607.530238	8.508018e-01	47	none	NaN	NaN
117	1	96	31	bathroom	sun_akiytfaagpdsphgz.tif	1362608.299829	1362608.558419	1362609.298543	7.507075e-01	21	37	1362610.623343	1
117	1	97	37	bathroom	sun_amzlamotzwfkwjco.tif	1362611.394559	1362611.653151	1362612.393328	7.090015e-01	27	none	NaN	NaN
117	1	98	29	bathroom	sun_ahqjwnzgolcaoidx.tif	1362613.162981	1362613.421569	1362614.161835	7.673898e-01	19	none	NaN	NaN
117	1	99	52	bathroom	sun_aunuadmjocsddsrl.tif	1362614.931397	1362615.189988	1362615.930110	7.924134e-01	42	none	NaN	NaN
117	1	100	48	bathroom	sun_aqrpegblszgcoujh.tif	1362616.699818	1362616.958407	1362617.698529	6.672955e-01	38	none	NaN	NaN
117	2	1	62	kitchen	labelme_kxvouciolcpqplr.tif	1362650.524986	1362650.783576	1362651.473732	8.257782e-01	52	none	NaN	NaN
117	2	2	82	kitchen	sun_aenotlpyftoioydp.tif	1362652.243357	1362652.501944	1362653.191955	7.006603e-01	72	none	NaN	NaN
117	2	3	80	kitchen	sun_aegoxogugdkwpmpj.tif	1362653.961725	1362654.220318	1362654.910454	8.257782e-01	70	none	NaN	NaN
117	2	4	84	kitchen	sun_aexklacwqwezaorf.tif	1362655.680094	1362655.938681	1362656.628766	7.507075e-01	74	none	NaN	NaN
117	2	5	88	kitchen	sun_agubuxuukhzyzpdp.tif	1362657.398466	1362657.657051	1362658.347108	7.423663e-01	78	none	NaN	NaN
117	2	6	85	kitchen	sun_afuyedyxivkhecmu.tif	1362659.116830	1362659.375421	1362660.065567	7.924134e-01	75	37	1362662.343514	1
117	2	7	73	kitchen	sun_abrcnpqqhmjwekyf.tif	1362663.120800	1362663.379357	1362664.069583	7.590487e-01	63	none	NaN	NaN
117	2	8	99	kitchen	sun_akcjzhbbjlbogpdi.tif	1362664.839166	1362665.097756	1362665.787843	7.256839e-01	89	none	NaN	NaN
117	2	9	75	kitchen	sun_acgtpgfybqjmzeyw.tif	1362666.557531	1362666.816125	1362667.506156	7.590487e-01	65	none	NaN	NaN
117	2	10	92	kitchen	sun_ahpczsiumwwocjkv.tif	1362668.275906	1362668.534490	1362669.224489	7.590487e-01	82	none	NaN	NaN
117	2	11	67	kitchen	sun_aarfiyshqohlwkmo.tif	1362669.994273	1362670.252861	1362670.942899	7.507075e-01	57	37	1362672.255504	1
117	2	12	89	kitchen	sun_agzzivivdpnawacl.tif	1362673.030616	1362673.289195	1362673.979316	7.090015e-01	79	none	NaN	NaN
117	2	13	87	kitchen	sun_agorklincwxrdtga.tif	1362674.748983	1362675.007571	1362675.697669	8.341194e-01	77	none	NaN	NaN
117	2	14	70	kitchen	sun_abdxkyyxwfskuaqb.tif	1362676.467349	1362676.725936	1362677.415961	7.006603e-01	60	none	NaN	NaN
117	2	15	69	kitchen	sun_abdenxonkemggwsq.tif	1362678.185737	1362678.444305	1362679.134418	6.506131e-01	59	none	NaN	NaN
117	2	16	66	kitchen	sun_aapllqyqlykszopd.tif	1362679.904087	1362680.162677	1362680.852796	7.340251e-01	56	39	1362684.031519	1
117	2	17	104	kitchen	sun_auticobqsbwgoppi.tif	1362684.808940	1362685.067530	1362685.757716	8.007546e-01	94	none	NaN	NaN
117	2	18	90	kitchen	sun_ahdycvpopffkzzsu.tif	1362686.527319	1362686.785900	1362687.476033	6.839779e-01	80	none	NaN	NaN
117	2	19	96	kitchen	sun_ajcbwwvdlsvjyzje.tif	1362688.245685	1362688.504275	1362689.194288	6.923191e-01	86	none	NaN	NaN
117	2	20	65	kitchen	sun_aamedkxepzlwuxes.tif	1362689.964051	1362690.222643	1362690.912844	7.090015e-01	55	none	NaN	NaN
117	2	21	106	kitchen	sun_awcpdzzznmweyyhv.tif	1362691.682418	1362691.941008	1362692.631073	7.673898e-01	96	none	NaN	NaN
117	2	22	83	kitchen	sun_aeqdocilnnpuvuhx.tif	1362693.400790	1362693.659378	1362694.349465	8.424606e-01	73	none	NaN	NaN
117	2	23	64	kitchen	sun_aadbddgrdsjugojn.tif	1362695.119159	1362695.377749	1362696.067820	7.840722e-01	54	none	NaN	NaN
117	2	24	61	kitchen	labelme_brsyyvweiuaazfr.tif	1362696.837527	1362697.096114	1362697.786262	7.173427e-01	51	none	NaN	NaN
117	2	25	107	kitchen	sun_axyyrmzcupyhlivc.tif	1362698.555894	1362698.814488	1362699.504497	7.340251e-01	97	none	NaN	NaN
117	2	26	91	kitchen	sun_ahljzhgcdpomplvg.tif	1362700.265925	1362700.524515	1362701.214650	6.589543e-01	81	none	NaN	NaN
117	2	27	94	kitchen	sun_ahywdevtimnqcsln.tif	1362701.984295	1362702.242880	1362702.933033	7.507075e-01	84	none	NaN	NaN
117	2	28	78	kitchen	sun_adgqasybjyktddhj.tif	1362703.702659	1362703.961249	1362704.651267	7.256839e-01	68	none	NaN	NaN
117	2	29	102	kitchen	sun_auaiucuqpdausiva.tif	1362705.421027	1362705.679620	1362706.369794	6.923191e-01	92	none	NaN	NaN
117	2	30	95	kitchen	sun_aixorpehvfykdynp.tif	1362707.139397	1362707.397984	1362708.088146	6.672955e-01	85	none	NaN	NaN
117	2	31	81	kitchen	sun_aehawpgmrlhlvcow.tif	1362708.857761	1362709.116350	1362709.806378	7.006603e-01	71	39	1362711.479353	1
117	2	32	74	kitchen	sun_acfmftudsenhrfhy.tif	1362712.252793	1362712.511389	1362713.201401	8.341194e-01	64	37	1362715.023475	1
117	2	33	72	kitchen	sun_abpwyqmlzafvklqo.tif	1362715.797971	1362716.056561	1362716.746747	7.090015e-01	62	none	NaN	NaN
117	2	34	109	kitchen	sun_aypmqwcualkenuoe.tif	1362717.516339	1362717.774930	1362718.465138	7.173427e-01	99	37	1362720.495407	1
117	2	35	63	kitchen	labelme_rykdqxenmhulbdn.tif	1362721.270058	1362721.528648	1362722.218649	7.757310e-01	53	none	NaN	NaN
117	2	36	105	kitchen	sun_avszsnwsbuqfgzbn.tif	1362722.988432	1362723.247015	1362723.937057	7.090015e-01	95	none	NaN	NaN
117	2	37	98	kitchen	sun_akchetnepxlcxhsu.tif	1362724.706802	1362724.965387	1362725.655474	8.090958e-01	88	none	NaN	NaN
117	2	38	86	kitchen	sun_aggjlwcdjsjcaemh.tif	1362726.425165	1362726.683759	1362727.373791	6.672955e-01	76	none	NaN	NaN
117	2	39	68	kitchen	sun_aaxxjlsuzvqlgylf.tif	1362728.143533	1362728.402125	1362729.092209	7.590487e-01	58	none	NaN	NaN
117	2	40	71	kitchen	sun_abftihopvusyfakt.tif	1362729.861902	1362730.120492	1362730.810662	8.424606e-01	61	none	NaN	NaN
117	2	41	93	kitchen	sun_ahspylgoovwmwvgk.tif	1362731.580270	1362731.838860	1362732.529010	7.673898e-01	83	39	1362733.855426	1
117	2	42	100	kitchen	sun_amjjdeyrggfqgmom.tif	1362734.633299	1362734.891888	1362735.582009	8.174370e-01	90	none	NaN	NaN
117	2	43	108	kitchen	sun_aymvwlarqodbwuoc.tif	1362736.351664	1362736.610259	1362737.300367	6.756367e-01	98	none	NaN	NaN
117	2	44	76	kitchen	sun_acwjdupvyjsugpay.tif	1362738.070034	1362738.328628	1362739.018708	7.840722e-01	66	none	NaN	NaN
117	2	45	97	kitchen	sun_ajkqhtgcbgpcwrwn.tif	1362739.788400	1362740.046992	1362740.737055	7.757310e-01	87	none	NaN	NaN
117	2	46	79	kitchen	sun_admlmbcdswaszruo.tif	1362741.506772	1362741.765360	1362742.455358	8.257782e-01	69	none	NaN	NaN
117	2	47	77	kitchen	sun_acxkpeoqbwcxfvip.tif	1362743.225144	1362743.483729	1362744.173784	7.924134e-01	67	none	NaN	NaN
117	2	48	103	kitchen	sun_aunzlwrbjumxhwdj.tif	1362744.943510	1362745.202099	1362745.892202	7.840722e-01	93	none	NaN	NaN
117	2	49	110	kitchen	sun_azmutvzbxypaceni.tif	1362746.661877	1362746.920470	1362747.610551	8.007546e-01	100	none	NaN	NaN
117	2	50	101	kitchen	sun_aqeaevwwwjoqhzvl.tif	1362748.380244	1362748.638832	1362749.328964	7.173427e-01	91	none	NaN	NaN
117	2	51	88	kitchen	sun_agubuxuukhzyzpdp.tif	1362750.098616	1362750.357199	1362751.047226	8.174370e-01	78	none	NaN	NaN
117	2	52	92	kitchen	sun_ahpczsiumwwocjkv.tif	1362751.816986	1362752.075573	1362752.765581	6.923191e-01	82	39	1362754.247712	1
117	2	53	66	kitchen	sun_aapllqyqlykszopd.tif	1362755.020155	1362755.278741	1362755.968795	8.090958e-01	56	none	NaN	NaN
117	2	54	102	kitchen	sun_auaiucuqpdausiva.tif	1362756.738525	1362756.997116	1362757.687162	7.924134e-01	92	37	1362761.887434	1
117	2	55	78	kitchen	sun_adgqasybjyktddhj.tif	1362762.661061	1362762.919648	1362763.609683	7.924134e-01	68	none	NaN	NaN
117	2	56	68	kitchen	sun_aaxxjlsuzvqlgylf.tif	1362764.379425	1362764.638018	1362765.328192	6.756367e-01	58	none	NaN	NaN
117	2	57	62	kitchen	labelme_kxvouciolcpqplr.tif	1362766.097799	1362766.356386	1362767.046571	6.589543e-01	52	none	NaN	NaN
117	2	58	100	kitchen	sun_amjjdeyrggfqgmom.tif	1362767.816168	1362768.074756	1362768.764779	6.923191e-01	90	none	NaN	NaN
117	2	59	74	kitchen	sun_acfmftudsenhrfhy.tif	1362769.534535	1362769.793125	1362770.483260	7.173427e-01	64	none	NaN	NaN
117	2	60	109	kitchen	sun_aypmqwcualkenuoe.tif	1362771.252906	1362771.511490	1362772.201521	8.424606e-01	99	none	NaN	NaN
117	2	61	105	kitchen	sun_avszsnwsbuqfgzbn.tif	1362772.971269	1362773.229858	1362773.919973	7.590487e-01	95	none	NaN	NaN
117	2	62	67	kitchen	sun_aarfiyshqohlwkmo.tif	1362774.689639	1362774.948230	1362775.638434	6.839779e-01	57	none	NaN	NaN
117	2	63	83	kitchen	sun_aeqdocilnnpuvuhx.tif	1362776.408006	1362776.666598	1362777.356634	6.672955e-01	73	none	NaN	NaN
117	2	64	90	kitchen	sun_ahdycvpopffkzzsu.tif	1362778.126380	1362778.384966	1362779.075138	6.756367e-01	80	none	NaN	NaN
117	2	65	75	kitchen	sun_acgtpgfybqjmzeyw.tif	1362779.844743	1362780.103335	1362780.793443	7.757310e-01	65	none	NaN	NaN
117	2	66	101	kitchen	sun_aqeaevwwwjoqhzvl.tif	1362781.563119	1362781.821705	1362782.511762	7.757310e-01	91	none	NaN	NaN
117	2	67	82	kitchen	sun_aenotlpyftoioydp.tif	1362783.281482	1362783.540067	1362784.230204	6.839779e-01	72	39	1362785.695482	1
117	2	68	97	kitchen	sun_ajkqhtgcbgpcwrwn.tif	1362786.467977	1362786.726564	1362787.416731	7.006603e-01	87	none	NaN	NaN
117	2	69	77	kitchen	sun_acxkpeoqbwcxfvip.tif	1362788.186338	1362788.444929	1362789.134955	7.340251e-01	67	none	NaN	NaN
117	2	70	63	kitchen	labelme_rykdqxenmhulbdn.tif	1362789.904708	1362790.163301	1362790.853400	7.423663e-01	53	none	NaN	NaN
117	2	71	87	kitchen	sun_agorklincwxrdtga.tif	1362791.623082	1362791.881670	1362792.571882	8.341194e-01	77	none	NaN	NaN
117	2	72	84	kitchen	sun_aexklacwqwezaorf.tif	1362793.341448	1362793.600039	1362794.290165	7.673898e-01	74	none	NaN	NaN
117	2	73	94	kitchen	sun_ahywdevtimnqcsln.tif	1362795.059816	1362795.318407	1362796.008493	6.923191e-01	84	37	1362797.119174	1
117	2	74	65	kitchen	sun_aamedkxepzlwuxes.tif	1362797.895959	1362798.154543	1362798.844559	8.508018e-01	55	none	NaN	NaN
117	2	75	96	kitchen	sun_ajcbwwvdlsvjyzje.tif	1362799.614324	1362799.872915	1362800.563026	7.507075e-01	86	39	1362802.455282	1
117	2	76	106	kitchen	sun_awcpdzzznmweyyhv.tif	1362803.226238	1362803.484829	1362804.175003	8.007546e-01	96	none	NaN	NaN
117	2	77	80	kitchen	sun_aegoxogugdkwpmpj.tif	1362804.944606	1362805.203199	1362805.893369	8.257782e-01	70	37	1362807.167485	1
117	2	78	95	kitchen	sun_aixorpehvfykdynp.tif	1362807.939235	1362808.197832	1362808.888026	7.423663e-01	85	none	NaN	NaN
117	2	79	81	kitchen	sun_aehawpgmrlhlvcow.tif	1362809.657611	1362809.916198	1362810.606387	8.174370e-01	71	none	NaN	NaN
117	2	80	76	kitchen	sun_acwjdupvyjsugpay.tif	1362811.375979	1362811.634565	1362812.324712	6.589543e-01	66	39	1362813.615157	1
117	2	81	61	kitchen	labelme_brsyyvweiuaazfr.tif	1362814.387294	1362814.645884	1362815.336044	8.090958e-01	51	none	NaN	NaN
117	2	82	98	kitchen	sun_akchetnepxlcxhsu.tif	1362816.105666	1362816.364251	1362817.054341	8.007546e-01	88	none	NaN	NaN
117	2	83	91	kitchen	sun_ahljzhgcdpomplvg.tif	1362817.824030	1362818.082623	1362818.772820	6.506131e-01	81	none	NaN	NaN
117	2	84	72	kitchen	sun_abpwyqmlzafvklqo.tif	1362819.542398	1362819.800988	1362820.491005	6.589543e-01	62	none	NaN	NaN
117	2	85	107	kitchen	sun_axyyrmzcupyhlivc.tif	1362821.260771	1362821.519361	1362822.209543	7.423663e-01	97	39	1362823.975633	1
117	2	86	104	kitchen	sun_auticobqsbwgoppi.tif	1362824.747557	1362825.006144	1362825.696222	6.839779e-01	94	none	NaN	NaN
117	2	87	108	kitchen	sun_aymvwlarqodbwuoc.tif	1362826.465923	1362826.724516	1362827.414665	7.256839e-01	98	none	NaN	NaN
117	2	88	93	kitchen	sun_ahspylgoovwmwvgk.tif	1362828.184292	1362828.442884	1362829.133003	8.257782e-01	83	none	NaN	NaN
117	2	89	86	kitchen	sun_aggjlwcdjsjcaemh.tif	1362829.902661	1362830.161255	1362830.851348	8.174370e-01	76	none	NaN	NaN
117	2	90	103	kitchen	sun_aunzlwrbjumxhwdj.tif	1362831.621030	1362831.879623	1362832.569720	6.506131e-01	93	none	NaN	NaN
117	2	91	73	kitchen	sun_abrcnpqqhmjwekyf.tif	1362833.339399	1362833.597991	1362834.288153	7.340251e-01	63	none	NaN	NaN
117	2	92	89	kitchen	sun_agzzivivdpnawacl.tif	1362835.057766	1362835.316356	1362836.006349	7.673898e-01	79	none	NaN	NaN
117	2	93	71	kitchen	sun_abftihopvusyfakt.tif	1362836.776136	1362837.034727	1362837.724859	6.756367e-01	61	none	NaN	NaN
117	2	94	85	kitchen	sun_afuyedyxivkhecmu.tif	1362838.494506	1362838.753097	1362839.443199	8.508018e-01	75	none	NaN	NaN
117	2	95	64	kitchen	sun_aadbddgrdsjugojn.tif	1362840.212874	1362840.471468	1362841.161637	6.672955e-01	54	none	NaN	NaN
117	2	96	110	kitchen	sun_azmutvzbxypaceni.tif	1362841.931246	1362842.189835	1362842.879833	8.424606e-01	100	none	NaN	NaN
117	2	97	70	kitchen	sun_abdxkyyxwfskuaqb.tif	1362843.649612	1362843.908202	1362844.598395	8.341194e-01	60	none	NaN	NaN
117	2	98	99	kitchen	sun_akcjzhbbjlbogpdi.tif	1362845.367979	1362845.626569	1362846.316676	7.840722e-01	89	none	NaN	NaN
117	2	99	79	kitchen	sun_admlmbcdswaszruo.tif	1362847.086348	1362847.344937	1362848.035120	8.090958e-01	69	none	NaN	NaN
117	2	100	69	kitchen	sun_abdenxonkemggwsq.tif	1362848.804719	1362849.063308	1362849.753447	7.256839e-01	59	none	NaN	NaN
117	3	1	27	bathroom	sun_ahcvzmoyaycdoftf.tif	1362899.254693	1362899.513280	1362900.328491	8.257782e-01	17	none	NaN	NaN
117	3	2	21	bathroom	sun_aggnnqpdorgxpvce.tif	1362901.098185	1362901.356773	1362902.171933	6.923191e-01	11	39	1362903.847517	1
117	3	3	19	bathroom	sun_aclfzgynxzxlbepz.tif	1362904.618333	1362904.876922	1362905.692187	8.257782e-01	9	none	NaN	NaN
117	3	4	46	bathroom	sun_apmqjbnwghzuhhzh.tif	1362906.461830	1362906.720419	1362907.535648	7.090015e-01	36	none	NaN	NaN
117	3	5	17	bathroom	sun_acegryoqftbzowsg.tif	1362908.305321	1362908.563910	1362909.379056	8.424606e-01	7	none	NaN	NaN
117	3	6	34	bathroom	sun_alkosphxlxwjwgjd.tif	1362910.148815	1362910.407403	1362911.222613	7.256839e-01	24	none	NaN	NaN
117	3	7	18	bathroom	sun_acgyywnybuveqsro.tif	1362911.992310	1362912.250894	1362913.066217	7.090015e-01	8	none	NaN	NaN
117	3	8	38	bathroom	sun_anhioqovhscjqqwb.tif	1362913.835798	1362914.094390	1362914.909704	6.756367e-01	28	none	NaN	NaN
117	3	9	50	bathroom	sun_aspsyogrekjtfozg.tif	1362915.679289	1362915.937882	1362916.753138	8.424606e-01	40	none	NaN	NaN
117	3	10	29	bathroom	sun_ahqjwnzgolcaoidx.tif	1362917.522786	1362917.781373	1362918.596575	7.090015e-01	19	37	1362919.839600	1
117	3	11	53	bathroom	sun_ausgutylgojavyoq.tif	1362920.617514	1362920.876104	1362921.691273	6.589543e-01	43	none	NaN	NaN
117	3	12	59	bathroom	sun_axyrejkiiaqiurjk.tif	1362922.461011	1362922.719599	1362923.534734	7.840722e-01	49	none	NaN	NaN
117	3	13	24	bathroom	sun_agrwbmhcpmfuwmsg.tif	1362924.304502	1362924.563094	1362925.378303	8.007546e-01	14	none	NaN	NaN
117	3	14	58	bathroom	sun_axxbkopsgyouuebh.tif	1362926.147996	1362926.406584	1362927.221903	7.507075e-01	48	none	NaN	NaN
117	3	15	31	bathroom	sun_akiytfaagpdsphgz.tif	1362927.991486	1362928.250076	1362929.065241	6.839779e-01	21	none	NaN	NaN
117	3	16	13	bathroom	sun_aavhrsfjbserjtht.tif	1362929.834977	1362930.093569	1362930.908855	7.590487e-01	3	none	NaN	NaN
117	3	17	54	bathroom	sun_auzqhkafidnkrwmo.tif	1362931.678474	1362931.937062	1362932.752258	8.341194e-01	44	37	1362934.447412	1
117	3	18	37	bathroom	sun_amzlamotzwfkwjco.tif	1362935.223651	1362935.482236	1362936.297458	7.340251e-01	27	none	NaN	NaN
117	3	19	49	bathroom	sun_asfwthctfqerjvxr.tif	1362937.067147	1362937.325731	1362938.141021	7.173427e-01	39	none	NaN	NaN
117	3	20	45	bathroom	sun_apkxzenqapsujocq.tif	1362938.910637	1362939.169223	1362939.984439	6.756367e-01	35	none	NaN	NaN
117	3	21	39	bathroom	sun_anryaplzeujmzfkd.tif	1362940.745791	1362941.004379	1362941.819594	6.506131e-01	29	none	NaN	NaN
117	3	22	51	bathroom	sun_atstyziqcmkahyxk.tif	1362942.589278	1362942.847868	1362943.663049	7.673898e-01	41	none	NaN	NaN
117	3	23	30	bathroom	sun_ajlawzvmubibwbpy.tif	1362944.432775	1362944.691358	1362945.506610	6.923191e-01	20	none	NaN	NaN
117	3	24	33	bathroom	sun_aljolscmmzydegqp.tif	1362946.276265	1362946.534853	1362947.350108	7.840722e-01	23	none	NaN	NaN
117	3	25	20	bathroom	sun_afcoljnjfoxjtgja.tif	1362948.119756	1362948.378351	1362949.193457	6.756367e-01	10	none	NaN	NaN
117	3	26	60	bathroom	sun_azqyogdvyhahyram.tif	1362949.963254	1362950.221832	1362951.037080	8.090958e-01	50	none	NaN	NaN
117	3	27	22	bathroom	sun_agguqiubmwhqqunb.tif	1362951.806743	1362952.065331	1362952.880572	7.673898e-01	12	37	1362955.095523	0
117	3	28	55	bathroom	sun_avhrdrntsqrjzccq.tif	1362955.869098	1362956.127690	1362956.942987	7.173427e-01	45	none	NaN	NaN
117	3	29	52	bathroom	sun_aunuadmjocsddsrl.tif	1362957.712595	1362957.971182	1362958.786357	7.006603e-01	42	none	NaN	NaN
117	3	30	14	bathroom	sun_abapwbhyhkfixyex.tif	1362959.556089	1362959.814676	1362960.629840	7.924134e-01	4	none	NaN	NaN
117	3	31	35	bathroom	sun_alotolagknyrgtsk.tif	1362961.399581	1362961.658171	1362962.473355	7.757310e-01	25	39	1362963.855445	1
117	3	32	11	bathroom	labelme_sfxiulhjbhlyiyt.tif	1362964.627772	1362964.886369	1362965.701474	7.340251e-01	1	none	NaN	NaN
117	3	33	48	bathroom	sun_aqrpegblszgcoujh.tif	1362966.471270	1362966.729859	1362967.545040	8.257782e-01	38	none	NaN	NaN
117	3	34	28	bathroom	sun_ahijqszoswveeyji.tif	1362968.314760	1362968.573350	1362969.388641	7.507075e-01	18	39	1362973.055592	1
117	3	35	57	bathroom	sun_axldvoqbuvuggfmq.tif	1362973.828555	1362974.087146	1362974.902278	7.924134e-01	47	none	NaN	NaN
117	3	36	26	bathroom	sun_ahaulkltgpkeeemi.tif	1362975.663709	1362975.922296	1362976.737509	7.256839e-01	16	none	NaN	NaN
117	3	37	23	bathroom	sun_aghyqhbptboemmoq.tif	1362977.507200	1362977.765792	1362978.581054	8.174370e-01	13	none	NaN	NaN
117	3	38	47	bathroom	sun_apynckhmoftszqoq.tif	1362979.350693	1362979.609283	1362980.424551	7.423663e-01	37	none	NaN	NaN
117	3	39	42	bathroom	sun_apeeialkgkuxddgh.tif	1362981.194187	1362981.452778	1362982.267965	7.673898e-01	32	39	1362984.327470	1
117	3	40	25	bathroom	sun_agyqfjcfkdcydepw.tif	1362985.098045	1362985.356640	1362986.171947	6.839779e-01	15	none	NaN	NaN
117	3	41	32	bathroom	sun_aleqenyvunhactkl.tif	1362986.941541	1362987.200133	1362988.015353	7.507075e-01	22	39	1362989.975482	1
117	3	42	12	bathroom	sun_aapitsgbtktqubfy.tif	1362990.753654	1362991.012244	1362991.827424	8.007546e-01	2	none	NaN	NaN
117	3	43	36	bathroom	sun_ambriybtogmepttm.tif	1362992.597149	1362992.855733	1362993.671059	7.006603e-01	26	none	NaN	NaN
117	3	44	44	bathroom	sun_apkruvsevgegsdwp.tif	1362994.440641	1362994.699231	1362995.514481	8.508018e-01	34	none	NaN	NaN
117	3	45	56	bathroom	sun_awnqiikzaispgmwo.tif	1362996.284130	1362996.542719	1362997.357966	6.756367e-01	46	none	NaN	NaN
117	3	46	15	bathroom	sun_abjtwfukuwddzted.tif	1362998.127626	1362998.386215	1362999.201354	8.424606e-01	5	none	NaN	NaN
117	3	47	16	bathroom	sun_acduarbnmmoglmiv.tif	1362999.971114	1363000.229709	1363001.044958	6.923191e-01	6	none	NaN	NaN
117	3	48	43	bathroom	sun_apjevzvycyhuqghb.tif	1363001.814609	1363002.073193	1363002.888334	7.757310e-01	33	none	NaN	NaN
117	3	49	40	bathroom	sun_aofnryafpsjimzsb.tif	1363003.658103	1363003.916694	1363004.731813	6.672955e-01	30	none	NaN	NaN
117	3	50	41	bathroom	sun_aoybiabnpadelefl.tif	1363005.501594	1363005.760189	1363006.575501	6.672955e-01	31	none	NaN	NaN
117	3	51	27	bathroom	sun_ahcvzmoyaycdoftf.tif	1363007.345090	1363007.603675	1363008.418791	8.341194e-01	17	37	1363010.327458	1
117	3	52	36	bathroom	sun_ambriybtogmepttm.tif	1363011.098806	1363011.357395	1363012.172624	8.341194e-01	26	none	NaN	NaN
117	3	53	37	bathroom	sun_amzlamotzwfkwjco.tif	1363012.942296	1363013.200890	1363014.016013	8.090958e-01	27	none	NaN	NaN
117	3	54	14	bathroom	sun_abapwbhyhkfixyex.tif	1363014.785794	1363015.044383	1363015.859537	8.007546e-01	4	none	NaN	NaN
117	3	55	40	bathroom	sun_aofnryafpsjimzsb.tif	1363016.629285	1363016.887872	1363017.703141	7.173427e-01	30	none	NaN	NaN
117	3	56	41	bathroom	sun_aoybiabnpadelefl.tif	1363018.472776	1363018.731368	1363019.546689	6.589543e-01	31	none	NaN	NaN
117	3	57	39	bathroom	sun_anryaplzeujmzfkd.tif	1363020.316266	1363020.574860	1363021.390017	6.839779e-01	29	none	NaN	NaN
117	3	58	43	bathroom	sun_apjevzvycyhuqghb.tif	1363022.159762	1363022.418356	1363023.233666	6.923191e-01	33	none	NaN	NaN
117	3	59	60	bathroom	sun_azqyogdvyhahyram.tif	1363024.003255	1363024.261843	1363025.077063	7.006603e-01	50	39	1363027.807284	1
117	3	60	38	bathroom	sun_anhioqovhscjqqwb.tif	1363028.582789	1363028.841378	1363029.656550	7.256839e-01	28	none	NaN	NaN
117	3	61	12	bathroom	sun_aapitsgbtktqubfy.tif	1363030.426285	1363030.684877	1363031.500067	7.423663e-01	2	none	NaN	NaN
117	3	62	11	bathroom	labelme_sfxiulhjbhlyiyt.tif	1363032.269778	1363032.528363	1363033.343530	7.757310e-01	1	none	NaN	NaN
117	3	63	30	bathroom	sun_ajlawzvmubibwbpy.tif	1363034.113266	1363034.371858	1363035.186966	8.174370e-01	20	none	NaN	NaN
117	3	64	28	bathroom	sun_ahijqszoswveeyji.tif	1363035.956762	1363036.215352	1363037.030644	6.506131e-01	18	none	NaN	NaN
117	3	65	48	bathroom	sun_aqrpegblszgcoujh.tif	1363037.800256	1363038.058844	1363038.874174	7.507075e-01	38	none	NaN	NaN
117	3	66	25	bathroom	sun_agyqfjcfkdcydepw.tif	1363039.643750	1363039.902337	1363040.717451	7.423663e-01	15	none	NaN	NaN
117	3	67	23	bathroom	sun_aghyqhbptboemmoq.tif	1363041.487238	1363041.745825	1363042.561137	6.923191e-01	13	none	NaN	NaN
117	3	68	16	bathroom	sun_acduarbnmmoglmiv.tif	1363043.330731	1363043.589324	1363044.404512	7.340251e-01	6	none	NaN	NaN
117	3	69	58	bathroom	sun_axxbkopsgyouuebh.tif	1363045.174228	1363045.432816	1363046.248001	8.257782e-01	48	none	NaN	NaN
117	3	70	21	bathroom	sun_aggnnqpdorgxpvce.tif	1363047.017714	1363047.276306	1363048.091508	8.174370e-01	11	none	NaN	NaN
117	3	71	26	bathroom	sun_ahaulkltgpkeeemi.tif	1363048.861211	1363049.119802	1363049.934942	8.090958e-01	16	none	NaN	NaN
117	3	72	34	bathroom	sun_alkosphxlxwjwgjd.tif	1363050.704704	1363050.963288	1363051.778616	6.506131e-01	24	none	NaN	NaN
117	3	73	52	bathroom	sun_aunuadmjocsddsrl.tif	1363052.548198	1363052.806783	1363053.621998	6.672955e-01	42	none	NaN	NaN
117	3	74	15	bathroom	sun_abjtwfukuwddzted.tif	1363054.391686	1363054.650279	1363055.465598	7.590487e-01	5	none	NaN	NaN
117	3	75	13	bathroom	sun_aavhrsfjbserjtht.tif	1363056.235181	1363056.493769	1363057.308950	7.673898e-01	3	none	NaN	NaN
117	3	76	46	bathroom	sun_apmqjbnwghzuhhzh.tif	1363058.078671	1363058.337258	1363059.152400	8.424606e-01	36	none	NaN	NaN
117	3	77	59	bathroom	sun_axyrejkiiaqiurjk.tif	1363059.922166	1363060.180758	1363060.996073	7.924134e-01	49	none	NaN	NaN
117	3	78	42	bathroom	sun_apeeialkgkuxddgh.tif	1363061.765657	1363062.024247	1363062.839412	7.840722e-01	32	none	NaN	NaN
117	3	79	24	bathroom	sun_agrwbmhcpmfuwmsg.tif	1363063.609153	1363063.867742	1363064.683010	8.007546e-01	14	none	NaN	NaN
117	3	80	35	bathroom	sun_alotolagknyrgtsk.tif	1363065.452646	1363065.711235	1363066.526421	7.173427e-01	25	37	1363069.447626	1
117	3	81	57	bathroom	sun_axldvoqbuvuggfmq.tif	1363070.224034	1363070.482626	1363071.297769	8.257782e-01	47	none	NaN	NaN
117	3	82	32	bathroom	sun_aleqenyvunhactkl.tif	1363072.067528	1363072.326117	1363073.141232	7.423663e-01	22	none	NaN	NaN
117	3	83	55	bathroom	sun_avhrdrntsqrjzccq.tif	1363073.911020	1363074.169612	1363074.984890	7.924134e-01	45	37	1363077.783145	1
117	3	84	22	bathroom	sun_agguqiubmwhqqunb.tif	1363078.557287	1363078.815882	1363079.631008	6.589543e-01	12	none	NaN	NaN
117	3	85	45	bathroom	sun_apkxzenqapsujocq.tif	1363080.400780	1363080.659369	1363081.474628	7.340251e-01	35	none	NaN	NaN
117	3	86	20	bathroom	sun_afcoljnjfoxjtgja.tif	1363082.244274	1363082.502867	1363083.317991	7.840722e-01	10	37	1363085.167464	1
117	3	87	19	bathroom	sun_aclfzgynxzxlbepz.tif	1363085.939604	1363086.198195	1363087.013434	7.590487e-01	9	none	NaN	NaN
117	3	88	31	bathroom	sun_akiytfaagpdsphgz.tif	1363087.783096	1363088.041682	1363088.856818	7.590487e-01	21	none	NaN	NaN
117	3	89	47	bathroom	sun_apynckhmoftszqoq.tif	1363089.626590	1363089.885174	1363090.700364	8.508018e-01	37	none	NaN	NaN
117	3	90	17	bathroom	sun_acegryoqftbzowsg.tif	1363091.470081	1363091.728671	1363092.543779	6.839779e-01	7	none	NaN	NaN
117	3	91	33	bathroom	sun_aljolscmmzydegqp.tif	1363093.313575	1363093.572162	1363094.387377	7.256839e-01	23	none	NaN	NaN
117	3	92	51	bathroom	sun_atstyziqcmkahyxk.tif	1363095.157061	1363095.415658	1363096.230801	6.672955e-01	41	37	1363098.151563	1
117	3	93	54	bathroom	sun_auzqhkafidnkrwmo.tif	1363098.927467	1363099.186059	1363100.001262	8.174370e-01	44	none	NaN	NaN
117	3	94	18	bathroom	sun_acgyywnybuveqsro.tif	1363100.770964	1363101.029546	1363101.844836	7.006603e-01	8	none	NaN	NaN
117	3	95	50	bathroom	sun_aspsyogrekjtfozg.tif	1363102.614451	1363102.873044	1363103.688188	7.090015e-01	40	none	NaN	NaN
117	3	96	53	bathroom	sun_ausgutylgojavyoq.tif	1363104.457944	1363104.716534	1363105.531755	7.757310e-01	43	none	NaN	NaN
117	3	97	56	bathroom	sun_awnqiikzaispgmwo.tif	1363106.301437	1363106.560027	1363107.375241	8.090958e-01	46	37	1363109.015608	1
117	3	98	49	bathroom	sun_asfwthctfqerjvxr.tif	1363109.788227	1363110.046817	1363110.861927	7.590487e-01	39	none	NaN	NaN
117	3	99	44	bathroom	sun_apkruvsevgegsdwp.tif	1363111.631719	1363111.890298	1363112.705552	6.589543e-01	34	none	NaN	NaN
117	3	100	29	bathroom	sun_ahqjwnzgolcaoidx.tif	1363113.475215	1363113.733798	1363114.548946	8.341194e-01	19	none	NaN	NaN
117	4	1	68	kitchen	sun_aaxxjlsuzvqlgylf.tif	1363176.295765	1363176.554358	1363177.252770	7.256839e-01	58	none	NaN	NaN
117	4	2	77	kitchen	sun_acxkpeoqbwcxfvip.tif	1363178.022475	1363178.281069	1363178.979474	7.006603e-01	67	none	NaN	NaN
117	4	3	79	kitchen	sun_admlmbcdswaszruo.tif	1363179.749189	1363180.007779	1363180.706317	8.174370e-01	69	none	NaN	NaN
117	4	4	86	kitchen	sun_aggjlwcdjsjcaemh.tif	1363181.475897	1363181.734488	1363182.432971	7.090015e-01	76	none	NaN	NaN
117	4	5	94	kitchen	sun_ahywdevtimnqcsln.tif	1363183.202612	1363183.461195	1363184.159744	7.006603e-01	84	none	NaN	NaN
117	4	6	95	kitchen	sun_aixorpehvfykdynp.tif	1363184.929318	1363185.187912	1363185.886456	6.756367e-01	85	none	NaN	NaN
117	4	7	75	kitchen	sun_acgtpgfybqjmzeyw.tif	1363186.656032	1363186.914620	1363187.613070	7.507075e-01	65	none	NaN	NaN
117	4	8	88	kitchen	sun_agubuxuukhzyzpdp.tif	1363188.382738	1363188.641331	1363189.339774	6.589543e-01	78	none	NaN	NaN
117	4	9	85	kitchen	sun_afuyedyxivkhecmu.tif	1363190.109453	1363190.368032	1363191.066419	7.840722e-01	75	37	1363192.679410	1
117	4	10	104	kitchen	sun_auticobqsbwgoppi.tif	1363193.454430	1363193.713018	1363194.411547	7.590487e-01	94	37	1363197.103316	0
117	4	11	72	kitchen	sun_abpwyqmlzafvklqo.tif	1363197.875478	1363198.134066	1363198.832450	7.924134e-01	62	none	NaN	NaN
117	4	12	66	kitchen	sun_aapllqyqlykszopd.tif	1363199.602183	1363199.860774	1363200.559296	7.256839e-01	56	none	NaN	NaN
117	4	13	69	kitchen	sun_abdenxonkemggwsq.tif	1363201.328895	1363201.587485	1363202.285942	8.090958e-01	59	39	1363204.151413	1
117	4	14	108	kitchen	sun_aymvwlarqodbwuoc.tif	1363204.924124	1363205.182713	1363205.881080	6.756367e-01	98	none	NaN	NaN
117	4	15	105	kitchen	sun_avszsnwsbuqfgzbn.tif	1363206.650832	1363206.909425	1363207.607818	7.507075e-01	95	none	NaN	NaN
117	4	16	78	kitchen	sun_adgqasybjyktddhj.tif	1363208.369203	1363208.627793	1363209.326297	8.007546e-01	68	none	NaN	NaN
117	4	17	101	kitchen	sun_aqeaevwwwjoqhzvl.tif	1363210.095913	1363210.354507	1363211.053045	8.508018e-01	91	39	1363212.599333	1
117	4	18	99	kitchen	sun_akcjzhbbjlbogpdi.tif	1363213.374157	1363213.632752	1363214.331201	6.839779e-01	89	none	NaN	NaN
117	4	19	90	kitchen	sun_ahdycvpopffkzzsu.tif	1363215.100870	1363215.359462	1363216.057873	7.423663e-01	80	none	NaN	NaN
117	4	20	70	kitchen	sun_abdxkyyxwfskuaqb.tif	1363216.827579	1363217.086169	1363217.784578	8.341194e-01	60	none	NaN	NaN
117	4	21	81	kitchen	sun_aehawpgmrlhlvcow.tif	1363218.554295	1363218.812877	1363219.511215	8.007546e-01	71	37	1363221.383418	0
117	4	22	106	kitchen	sun_awcpdzzznmweyyhv.tif	1363222.157858	1363222.416451	1363223.114873	8.090958e-01	96	none	NaN	NaN
117	4	23	93	kitchen	sun_ahspylgoovwmwvgk.tif	1363223.884573	1363224.143160	1363224.841586	6.506131e-01	83	none	NaN	NaN
117	4	24	97	kitchen	sun_ajkqhtgcbgpcwrwn.tif	1363225.611284	1363225.869868	1363226.568209	7.173427e-01	87	none	NaN	NaN
117	4	25	91	kitchen	sun_ahljzhgcdpomplvg.tif	1363227.338006	1363227.596581	1363228.295020	7.256839e-01	81	none	NaN	NaN
117	4	26	96	kitchen	sun_ajcbwwvdlsvjyzje.tif	1363229.064699	1363229.323297	1363230.021795	8.090958e-01	86	none	NaN	NaN
117	4	27	62	kitchen	labelme_kxvouciolcpqplr.tif	1363230.791411	1363231.049995	1363231.748333	7.757310e-01	52	none	NaN	NaN
117	4	28	109	kitchen	sun_aypmqwcualkenuoe.tif	1363232.509783	1363232.768367	1363233.466781	7.757310e-01	99	37	1363234.527538	1
117	4	29	76	kitchen	sun_acwjdupvyjsugpay.tif	1363235.304214	1363235.562804	1363236.261139	8.090958e-01	66	none	NaN	NaN
117	4	30	87	kitchen	sun_agorklincwxrdtga.tif	1363237.030924	1363237.289516	1363237.987878	8.424606e-01	77	none	NaN	NaN
117	4	31	102	kitchen	sun_auaiucuqpdausiva.tif	1363238.757638	1363239.016227	1363239.714600	8.341194e-01	92	none	NaN	NaN
117	4	32	110	kitchen	sun_azmutvzbxypaceni.tif	1363240.484347	1363240.742937	1363241.441477	7.673898e-01	100	39	1363243.127435	1
117	4	33	98	kitchen	sun_akchetnepxlcxhsu.tif	1363243.904393	1363244.162991	1363244.861440	6.672955e-01	88	none	NaN	NaN
117	4	34	100	kitchen	sun_amjjdeyrggfqgmom.tif	1363245.631110	1363245.889700	1363246.588249	7.340251e-01	90	37	1363247.639329	1
117	4	35	107	kitchen	sun_axyyrmzcupyhlivc.tif	1363248.417199	1363248.675797	1363249.374209	7.673898e-01	97	none	NaN	NaN
117	4	36	65	kitchen	sun_aamedkxepzlwuxes.tif	1363250.143912	1363250.402506	1363251.100869	8.174370e-01	55	none	NaN	NaN
117	4	37	64	kitchen	sun_aadbddgrdsjugojn.tif	1363251.870626	1363252.129215	1363252.827624	7.340251e-01	54	37	1363254.751165	1
117	4	38	89	kitchen	sun_agzzivivdpnawacl.tif	1363255.524245	1363255.782835	1363256.481258	8.424606e-01	79	none	NaN	NaN
117	4	39	103	kitchen	sun_aunzlwrbjumxhwdj.tif	1363257.250956	1363257.509540	1363258.207925	6.839779e-01	93	none	NaN	NaN
117	4	40	71	kitchen	sun_abftihopvusyfakt.tif	1363258.977664	1363259.236255	1363259.934693	7.423663e-01	61	none	NaN	NaN
117	4	41	83	kitchen	sun_aeqdocilnnpuvuhx.tif	1363260.704374	1363260.962964	1363261.661480	6.506131e-01	73	none	NaN	NaN
117	4	42	73	kitchen	sun_abrcnpqqhmjwekyf.tif	1363262.431082	1363262.689705	1363263.388166	6.506131e-01	63	none	NaN	NaN
117	4	43	84	kitchen	sun_aexklacwqwezaorf.tif	1363264.157795	1363264.416384	1363265.114832	7.173427e-01	74	none	NaN	NaN
117	4	44	92	kitchen	sun_ahpczsiumwwocjkv.tif	1363265.884507	1363266.143097	1363266.841525	7.673898e-01	82	none	NaN	NaN
117	4	45	82	kitchen	sun_aenotlpyftoioydp.tif	1363267.602876	1363267.861463	1363268.559804	8.257782e-01	72	37	1363271.111351	0
117	4	46	80	kitchen	sun_aegoxogugdkwpmpj.tif	1363271.882116	1363272.140699	1363272.839257	6.923191e-01	70	none	NaN	NaN
117	4	47	61	kitchen	labelme_brsyyvweiuaazfr.tif	1363273.608822	1363273.867415	1363274.565937	7.090015e-01	51	none	NaN	NaN
117	4	48	63	kitchen	labelme_rykdqxenmhulbdn.tif	1363275.335534	1363275.594124	1363276.293120	8.174370e-01	53	37	1363277.671179	1
117	4	49	67	kitchen	sun_aarfiyshqohlwkmo.tif	1363278.446945	1363278.705538	1363279.404013	7.006603e-01	57	none	NaN	NaN
117	4	50	74	kitchen	sun_acfmftudsenhrfhy.tif	1363280.173663	1363280.432248	1363281.130591	7.423663e-01	64	none	NaN	NaN
117	4	51	91	kitchen	sun_ahljzhgcdpomplvg.tif	1363281.900369	1363282.158956	1363282.857440	7.924134e-01	81	none	NaN	NaN
117	4	52	85	kitchen	sun_afuyedyxivkhecmu.tif	1363283.627078	1363283.885670	1363284.584097	8.257782e-01	75	none	NaN	NaN
117	4	53	78	kitchen	sun_adgqasybjyktddhj.tif	1363285.353789	1363285.612377	1363286.310878	6.756367e-01	68	none	NaN	NaN
117	4	54	92	kitchen	sun_ahpczsiumwwocjkv.tif	1363287.080497	1363287.339090	1363288.037485	6.589543e-01	82	none	NaN	NaN
117	4	55	87	kitchen	sun_agorklincwxrdtga.tif	1363288.807213	1363289.065799	1363289.764207	8.257782e-01	77	none	NaN	NaN
117	4	56	102	kitchen	sun_auaiucuqpdausiva.tif	1363290.533922	1363290.792511	1363291.490924	7.256839e-01	92	none	NaN	NaN
117	4	57	66	kitchen	sun_aapllqyqlykszopd.tif	1363292.260633	1363292.519218	1363293.217746	8.007546e-01	56	39	1363304.767361	1
117	4	58	106	kitchen	sun_awcpdzzznmweyyhv.tif	1363305.540449	1363305.799039	1363306.497618	7.090015e-01	96	none	NaN	NaN
117	4	59	64	kitchen	sun_aadbddgrdsjugojn.tif	1363307.267163	1363307.525750	1363308.224114	7.090015e-01	54	none	NaN	NaN
117	4	60	80	kitchen	sun_aegoxogugdkwpmpj.tif	1363308.993874	1363309.252460	1363309.950826	6.672955e-01	70	none	NaN	NaN
117	4	61	73	kitchen	sun_abrcnpqqhmjwekyf.tif	1363310.720584	1363310.979169	1363311.677558	7.673898e-01	63	none	NaN	NaN
117	4	62	105	kitchen	sun_avszsnwsbuqfgzbn.tif	1363312.447294	1363312.705878	1363313.404336	7.423663e-01	95	none	NaN	NaN
117	4	63	62	kitchen	labelme_kxvouciolcpqplr.tif	1363314.174005	1363314.432592	1363315.131135	7.173427e-01	52	none	NaN	NaN
117	4	64	89	kitchen	sun_agzzivivdpnawacl.tif	1363315.900717	1363316.159302	1363316.857749	6.672955e-01	79	none	NaN	NaN
117	4	65	103	kitchen	sun_aunzlwrbjumxhwdj.tif	1363317.627425	1363317.886016	1363318.584492	8.257782e-01	93	37	1363320.631377	1
117	4	66	108	kitchen	sun_aymvwlarqodbwuoc.tif	1363321.406162	1363321.664756	1363322.363126	8.424606e-01	98	none	NaN	NaN
117	4	67	72	kitchen	sun_abpwyqmlzafvklqo.tif	1363323.132881	1363323.391467	1363324.089965	7.590487e-01	62	none	NaN	NaN
117	4	68	70	kitchen	sun_abdxkyyxwfskuaqb.tif	1363324.859587	1363325.118176	1363325.816580	6.923191e-01	60	none	NaN	NaN
117	4	69	68	kitchen	sun_aaxxjlsuzvqlgylf.tif	1363326.586299	1363326.844879	1363327.543370	6.756367e-01	58	37	1363328.807512	1
117	4	70	110	kitchen	sun_azmutvzbxypaceni.tif	1363329.580925	1363329.839518	1363330.537939	7.507075e-01	100	none	NaN	NaN
117	4	71	107	kitchen	sun_axyyrmzcupyhlivc.tif	1363331.307641	1363331.566233	1363332.264669	6.923191e-01	97	none	NaN	NaN
117	4	72	97	kitchen	sun_ajkqhtgcbgpcwrwn.tif	1363333.034355	1363333.292942	1363333.991494	7.340251e-01	87	none	NaN	NaN
117	4	73	65	kitchen	sun_aamedkxepzlwuxes.tif	1363334.761062	1363335.019654	1363335.718184	7.590487e-01	55	39	1363337.631388	1
117	4	74	99	kitchen	sun_akcjzhbbjlbogpdi.tif	1363338.406340	1363338.664930	1363339.363339	6.839779e-01	89	none	NaN	NaN
117	4	75	94	kitchen	sun_ahywdevtimnqcsln.tif	1363340.133049	1363340.391638	1363341.090082	7.840722e-01	84	none	NaN	NaN
117	4	76	83	kitchen	sun_aeqdocilnnpuvuhx.tif	1363341.859757	1363342.118350	1363342.816795	8.341194e-01	73	none	NaN	NaN
117	4	77	86	kitchen	sun_aggjlwcdjsjcaemh.tif	1363343.586471	1363343.845059	1363344.543418	6.672955e-01	76	none	NaN	NaN
117	4	78	95	kitchen	sun_aixorpehvfykdynp.tif	1363345.313180	1363345.571767	1363346.270273	7.590487e-01	85	none	NaN	NaN
117	4	79	74	kitchen	sun_acfmftudsenhrfhy.tif	1363347.039894	1363347.298479	1363347.996845	7.590487e-01	64	none	NaN	NaN
117	4	80	77	kitchen	sun_acxkpeoqbwcxfvip.tif	1363348.766598	1363349.025190	1363349.723687	7.757310e-01	67	none	NaN	NaN
117	4	81	79	kitchen	sun_admlmbcdswaszruo.tif	1363350.493311	1363350.751901	1363351.450435	7.924134e-01	69	none	NaN	NaN
117	4	82	84	kitchen	sun_aexklacwqwezaorf.tif	1363352.220023	1363352.478610	1363353.177134	8.508018e-01	74	none	NaN	NaN
117	4	83	88	kitchen	sun_agubuxuukhzyzpdp.tif	1363353.946734	1363354.205321	1363354.903829	7.924134e-01	78	none	NaN	NaN
117	4	84	109	kitchen	sun_aypmqwcualkenuoe.tif	1363355.673441	1363355.932021	1363356.630507	8.424606e-01	99	none	NaN	NaN
117	4	85	63	kitchen	labelme_rykdqxenmhulbdn.tif	1363357.400155	1363357.658743	1363358.357085	6.589543e-01	53	none	NaN	NaN
117	4	86	101	kitchen	sun_aqeaevwwwjoqhzvl.tif	1363359.118520	1363359.377112	1363360.075640	8.341194e-01	91	none	NaN	NaN
117	4	87	93	kitchen	sun_ahspylgoovwmwvgk.tif	1363360.845234	1363361.103818	1363361.802318	7.840722e-01	83	none	NaN	NaN
117	4	88	81	kitchen	sun_aehawpgmrlhlvcow.tif	1363362.571943	1363362.830532	1363363.529042	7.340251e-01	71	none	NaN	NaN
117	4	89	90	kitchen	sun_ahdycvpopffkzzsu.tif	1363364.298651	1363364.557243	1363365.255728	8.257782e-01	80	none	NaN	NaN
117	4	90	98	kitchen	sun_akchetnepxlcxhsu.tif	1363366.025365	1363366.283955	1363366.982469	7.757310e-01	88	none	NaN	NaN
117	4	91	69	kitchen	sun_abdenxonkemggwsq.tif	1363367.752074	1363368.010662	1363368.709040	6.923191e-01	59	none	NaN	NaN
117	4	92	96	kitchen	sun_ajcbwwvdlsvjyzje.tif	1363369.478782	1363369.737371	1363370.435796	6.839779e-01	86	none	NaN	NaN
117	4	93	75	kitchen	sun_acgtpgfybqjmzeyw.tif	1363371.205497	1363371.464085	1363372.162536	8.174370e-01	65	none	NaN	NaN
117	4	94	76	kitchen	sun_acwjdupvyjsugpay.tif	1363372.932203	1363373.190789	1363373.889155	7.173427e-01	66	none	NaN	NaN
117	4	95	104	kitchen	sun_auticobqsbwgoppi.tif	1363374.658912	1363374.917500	1363375.615902	8.007546e-01	94	none	NaN	NaN
117	4	96	82	kitchen	sun_aenotlpyftoioydp.tif	1363376.385623	1363376.644215	1363377.342774	7.840722e-01	72	none	NaN	NaN
117	4	97	61	kitchen	labelme_brsyyvweiuaazfr.tif	1363378.112335	1363378.370921	1363379.069315	7.006603e-01	51	none	NaN	NaN
117	4	98	71	kitchen	sun_abftihopvusyfakt.tif	1363379.839048	1363380.097633	1363380.796188	6.589543e-01	61	none	NaN	NaN
117	4	99	67	kitchen	sun_aarfiyshqohlwkmo.tif	1363381.565753	1363381.824336	1363382.522843	6.923191e-01	57	none	NaN	NaN
117	4	100	100	kitchen	sun_amjjdeyrggfqgmom.tif	1363383.292465	1363383.551052	1363384.249471	7.507075e-01	90	none	NaN	NaN
117	5	1	47	bathroom	sun_apynckhmoftszqoq.tif	1363471.029368	1363471.287958	1363471.994719	7.590487e-01	37	none	NaN	NaN
117	5	2	55	bathroom	sun_avhrdrntsqrjzccq.tif	1363472.764421	1363473.023012	1363473.729846	6.506131e-01	45	39	1363475.751209	1
117	5	3	45	bathroom	sun_apkxzenqapsujocq.tif	1363476.526483	1363476.785069	1363477.491929	7.423663e-01	35	none	NaN	NaN
117	5	4	41	bathroom	sun_aoybiabnpadelefl.tif	1363478.261535	1363478.520123	1363479.226920	7.090015e-01	31	none	NaN	NaN
117	5	5	21	bathroom	sun_aggnnqpdorgxpvce.tif	1363479.996586	1363480.255172	1363480.961925	7.173427e-01	11	none	NaN	NaN
117	5	6	36	bathroom	sun_ambriybtogmepttm.tif	1363481.731638	1363481.990223	1363482.697067	8.508018e-01	26	none	NaN	NaN
117	5	7	24	bathroom	sun_agrwbmhcpmfuwmsg.tif	1363483.466688	1363483.725278	1363484.432094	6.756367e-01	14	none	NaN	NaN
117	5	8	37	bathroom	sun_amzlamotzwfkwjco.tif	1363485.201738	1363485.460328	1363486.167213	7.006603e-01	27	none	NaN	NaN
117	5	9	20	bathroom	sun_afcoljnjfoxjtgja.tif	1363486.936793	1363487.195380	1363487.902095	7.256839e-01	10	none	NaN	NaN
117	5	10	40	bathroom	sun_aofnryafpsjimzsb.tif	1363488.671844	1363488.930432	1363489.637283	7.507075e-01	30	none	NaN	NaN
117	5	11	42	bathroom	sun_apeeialkgkuxddgh.tif	1363490.406900	1363490.665485	1363491.372162	8.090958e-01	32	none	NaN	NaN
117	5	12	13	bathroom	sun_aavhrsfjbserjtht.tif	1363492.133578	1363492.392199	1363493.098855	8.174370e-01	3	none	NaN	NaN
117	5	13	11	bathroom	labelme_sfxiulhjbhlyiyt.tif	1363493.860322	1363494.118904	1363494.825596	7.256839e-01	1	none	NaN	NaN
117	5	14	34	bathroom	sun_alkosphxlxwjwgjd.tif	1363495.587029	1363495.845617	1363496.552402	6.589543e-01	24	37	1363498.839583	1
117	5	15	51	bathroom	sun_atstyziqcmkahyxk.tif	1363499.616017	1363499.874604	1363500.581445	7.256839e-01	41	37	1363504.767195	0
117	5	16	32	bathroom	sun_aleqenyvunhactkl.tif	1363505.538546	1363505.797140	1363506.503934	7.840722e-01	22	none	NaN	NaN
117	5	17	26	bathroom	sun_ahaulkltgpkeeemi.tif	1363507.273604	1363507.532211	1363508.238998	7.924134e-01	16	none	NaN	NaN
117	5	18	33	bathroom	sun_aljolscmmzydegqp.tif	1363509.008651	1363509.267241	1363509.973932	7.006603e-01	23	37	1363511.303313	1
117	5	19	28	bathroom	sun_ahijqszoswveeyji.tif	1363512.078365	1363512.336954	1363513.043694	7.006603e-01	18	none	NaN	NaN
117	5	20	19	bathroom	sun_aclfzgynxzxlbepz.tif	1363513.813413	1363514.080346	1363514.778895	7.590487e-01	9	none	NaN	NaN
117	5	21	35	bathroom	sun_alotolagknyrgtsk.tif	1363515.548462	1363515.807052	1363516.513945	7.173427e-01	25	none	NaN	NaN
117	5	22	58	bathroom	sun_axxbkopsgyouuebh.tif	1363517.283514	1363517.542107	1363518.248918	8.508018e-01	48	none	NaN	NaN
117	5	23	27	bathroom	sun_ahcvzmoyaycdoftf.tif	1363519.018569	1363519.277160	1363519.983981	7.173427e-01	17	none	NaN	NaN
117	5	24	23	bathroom	sun_aghyqhbptboemmoq.tif	1363520.753622	1363521.012207	1363521.719073	8.090958e-01	13	none	NaN	NaN
117	5	25	56	bathroom	sun_awnqiikzaispgmwo.tif	1363522.488671	1363522.747259	1363523.454024	8.174370e-01	46	none	NaN	NaN
117	5	26	15	bathroom	sun_abjtwfukuwddzted.tif	1363524.223725	1363524.482310	1363525.189148	7.423663e-01	5	none	NaN	NaN
117	5	27	48	bathroom	sun_aqrpegblszgcoujh.tif	1363525.958777	1363526.217366	1363526.924238	8.424606e-01	38	none	NaN	NaN
117	5	28	18	bathroom	sun_acgyywnybuveqsro.tif	1363527.693825	1363527.952419	1363528.659248	8.174370e-01	8	none	NaN	NaN
117	5	29	60	bathroom	sun_azqyogdvyhahyram.tif	1363529.428881	1363529.687470	1363530.394229	8.007546e-01	50	none	NaN	NaN
117	5	30	46	bathroom	sun_apmqjbnwghzuhhzh.tif	1363531.163931	1363531.422523	1363532.129247	6.756367e-01	36	none	NaN	NaN
117	5	31	30	bathroom	sun_ajlawzvmubibwbpy.tif	1363532.898984	1363533.157577	1363533.864396	6.589543e-01	20	none	NaN	NaN
117	5	32	31	bathroom	sun_akiytfaagpdsphgz.tif	1363534.634033	1363534.892625	1363535.599306	8.424606e-01	21	none	NaN	NaN
117	5	33	16	bathroom	sun_acduarbnmmoglmiv.tif	1363536.360749	1363536.619340	1363537.326202	6.672955e-01	6	none	NaN	NaN
117	5	34	29	bathroom	sun_ahqjwnzgolcaoidx.tif	1363538.095799	1363538.354386	1363539.061108	7.090015e-01	19	37	1363542.727550	0
117	5	35	49	bathroom	sun_asfwthctfqerjvxr.tif	1363543.501149	1363543.759740	1363544.466563	7.673898e-01	39	none	NaN	NaN
117	5	36	43	bathroom	sun_apjevzvycyhuqghb.tif	1363545.236206	1363545.494793	1363546.201594	8.007546e-01	33	none	NaN	NaN
117	5	37	22	bathroom	sun_agguqiubmwhqqunb.tif	1363546.971256	1363547.229845	1363547.936614	7.006603e-01	12	none	NaN	NaN
117	5	38	17	bathroom	sun_acegryoqftbzowsg.tif	1363548.706309	1363548.964891	1363549.671588	6.672955e-01	7	none	NaN	NaN
117	5	39	44	bathroom	sun_apkruvsevgegsdwp.tif	1363550.441360	1363550.699952	1363551.406728	7.757310e-01	34	39	1363553.711490	1
117	5	40	52	bathroom	sun_aunuadmjocsddsrl.tif	1363554.487033	1363554.745622	1363555.452422	8.007546e-01	42	none	NaN	NaN
117	5	41	59	bathroom	sun_axyrejkiiaqiurjk.tif	1363556.222088	1363556.480677	1363557.187478	8.007546e-01	49	none	NaN	NaN
117	5	42	53	bathroom	sun_ausgutylgojavyoq.tif	1363557.957141	1363558.215725	1363558.922661	7.090015e-01	43	none	NaN	NaN
117	5	43	12	bathroom	sun_aapitsgbtktqubfy.tif	1363559.692190	1363559.950778	1363560.657486	6.589543e-01	2	none	NaN	NaN
117	5	44	25	bathroom	sun_agyqfjcfkdcydepw.tif	1363561.427243	1363561.685833	1363562.392667	7.673898e-01	15	none	NaN	NaN
117	5	45	14	bathroom	sun_abapwbhyhkfixyex.tif	1363563.162295	1363563.420877	1363564.127624	7.590487e-01	4	none	NaN	NaN
117	5	46	54	bathroom	sun_auzqhkafidnkrwmo.tif	1363564.897349	1363565.155936	1363565.862832	8.090958e-01	44	none	NaN	NaN
117	5	47	39	bathroom	sun_anryaplzeujmzfkd.tif	1363566.632394	1363566.890987	1363567.597799	7.840722e-01	29	none	NaN	NaN
117	5	48	38	bathroom	sun_anhioqovhscjqqwb.tif	1363568.367449	1363568.626037	1363569.334128	6.756367e-01	28	none	NaN	NaN
117	5	49	57	bathroom	sun_axldvoqbuvuggfmq.tif	1363570.102501	1363570.361088	1363571.067831	7.757310e-01	47	none	NaN	NaN
117	5	50	50	bathroom	sun_aspsyogrekjtfozg.tif	1363571.837551	1363572.096147	1363572.802842	8.090958e-01	40	none	NaN	NaN
117	5	51	50	bathroom	sun_aspsyogrekjtfozg.tif	1363573.564263	1363573.822854	1363574.529595	7.673898e-01	40	none	NaN	NaN
117	5	52	58	bathroom	sun_axxbkopsgyouuebh.tif	1363575.299320	1363575.557907	1363576.264774	8.257782e-01	48	none	NaN	NaN
117	5	53	13	bathroom	sun_aavhrsfjbserjtht.tif	1363577.034368	1363577.292954	1363577.999833	8.257782e-01	3	none	NaN	NaN
117	5	54	28	bathroom	sun_ahijqszoswveeyji.tif	1363578.769423	1363579.028008	1363579.734690	7.423663e-01	18	none	NaN	NaN
117	5	55	31	bathroom	sun_akiytfaagpdsphgz.tif	1363580.496131	1363580.754721	1363581.461444	7.590487e-01	21	none	NaN	NaN
117	5	56	14	bathroom	sun_abapwbhyhkfixyex.tif	1363582.231177	1363582.489773	1363583.196662	8.341194e-01	4	none	NaN	NaN
117	5	57	26	bathroom	sun_ahaulkltgpkeeemi.tif	1363583.966232	1363584.224822	1363584.931630	7.340251e-01	16	none	NaN	NaN
117	5	58	45	bathroom	sun_apkxzenqapsujocq.tif	1363585.701290	1363585.959877	1363586.666607	8.257782e-01	35	none	NaN	NaN
117	5	59	52	bathroom	sun_aunuadmjocsddsrl.tif	1363587.436339	1363587.694929	1363588.401674	7.840722e-01	42	none	NaN	NaN
117	5	60	15	bathroom	sun_abjtwfukuwddzted.tif	1363589.171389	1363589.429981	1363590.136737	8.424606e-01	5	none	NaN	NaN
117	5	61	42	bathroom	sun_apeeialkgkuxddgh.tif	1363590.906443	1363591.165031	1363591.871894	8.341194e-01	32	none	NaN	NaN
117	5	62	32	bathroom	sun_aleqenyvunhactkl.tif	1363592.641493	1363592.900083	1363593.606864	8.341194e-01	22	none	NaN	NaN
117	5	63	34	bathroom	sun_alkosphxlxwjwgjd.tif	1363594.376547	1363594.635134	1363595.341963	7.757310e-01	24	none	NaN	NaN
117	5	64	16	bathroom	sun_acduarbnmmoglmiv.tif	1363596.111598	1363596.370188	1363597.076890	8.257782e-01	6	none	NaN	NaN
117	5	65	44	bathroom	sun_apkruvsevgegsdwp.tif	1363597.838309	1363598.096898	1363598.803695	7.590487e-01	34	none	NaN	NaN
117	5	66	36	bathroom	sun_ambriybtogmepttm.tif	1363599.573360	1363599.831953	1363600.538790	7.507075e-01	26	none	NaN	NaN
117	5	67	27	bathroom	sun_ahcvzmoyaycdoftf.tif	1363601.308410	1363601.566997	1363602.273698	6.839779e-01	17	none	NaN	NaN
117	5	68	33	bathroom	sun_aljolscmmzydegqp.tif	1363603.043467	1363603.302053	1363604.008898	8.174370e-01	23	39	1363608.663422	1
117	5	69	49	bathroom	sun_asfwthctfqerjvxr.tif	1363609.441467	1363609.700056	1363610.406796	6.923191e-01	39	none	NaN	NaN
117	5	70	46	bathroom	sun_apmqjbnwghzuhhzh.tif	1363611.176519	1363611.435109	1363612.141858	6.589543e-01	36	39	1363614.927545	1
117	5	71	60	bathroom	sun_azqyogdvyhahyram.tif	1363615.706000	1363615.964593	1363616.671360	6.923191e-01	50	37	1363617.983600	1
117	5	72	56	bathroom	sun_awnqiikzaispgmwo.tif	1363618.759030	1363619.017619	1363619.724406	8.341194e-01	46	none	NaN	NaN
117	5	73	53	bathroom	sun_ausgutylgojavyoq.tif	1363620.494077	1363620.752661	1363621.459411	7.924134e-01	43	none	NaN	NaN
117	5	74	12	bathroom	sun_aapitsgbtktqubfy.tif	1363622.229131	1363622.487725	1363623.194450	7.924134e-01	2	none	NaN	NaN
117	5	75	38	bathroom	sun_anhioqovhscjqqwb.tif	1363623.964181	1363624.222773	1363624.929539	6.923191e-01	28	none	NaN	NaN
117	5	76	47	bathroom	sun_apynckhmoftszqoq.tif	1363625.699235	1363625.957827	1363626.664622	6.923191e-01	37	none	NaN	NaN
117	5	77	55	bathroom	sun_avhrdrntsqrjzccq.tif	1363627.434291	1363627.692877	1363628.399587	6.839779e-01	45	none	NaN	NaN
117	5	78	29	bathroom	sun_ahqjwnzgolcaoidx.tif	1363629.169342	1363629.427931	1363630.134658	8.424606e-01	19	none	NaN	NaN
117	5	79	20	bathroom	sun_afcoljnjfoxjtgja.tif	1363630.904392	1363631.162985	1363631.869717	7.840722e-01	10	37	1363633.271456	1
117	5	80	59	bathroom	sun_axyrejkiiaqiurjk.tif	1363634.049172	1363634.307760	1363635.014563	6.506131e-01	49	none	NaN	NaN
117	5	81	39	bathroom	sun_anryaplzeujmzfkd.tif	1363635.784227	1363636.042814	1363636.749677	7.256839e-01	29	none	NaN	NaN
117	5	82	18	bathroom	sun_acgyywnybuveqsro.tif	1363637.519281	1363637.777866	1363638.484568	7.340251e-01	8	none	NaN	NaN
117	5	83	21	bathroom	sun_aggnnqpdorgxpvce.tif	1363639.245990	1363639.504576	1363640.211317	7.090015e-01	11	none	NaN	NaN
117	5	84	37	bathroom	sun_amzlamotzwfkwjco.tif	1363640.981042	1363641.239630	1363641.946406	7.173427e-01	27	39	1363643.935357	1
117	5	85	11	bathroom	labelme_sfxiulhjbhlyiyt.tif	1363644.709732	1363644.968315	1363645.675059	7.340251e-01	1	37	1363646.815461	1
117	5	86	35	bathroom	sun_alotolagknyrgtsk.tif	1363647.587586	1363647.846171	1363648.552965	7.507075e-01	25	37	1363649.615317	1
117	5	87	30	bathroom	sun_ajlawzvmubibwbpy.tif	1363650.390358	1363650.648948	1363651.355649	7.673898e-01	20	none	NaN	NaN
117	5	88	57	bathroom	sun_axldvoqbuvuggfmq.tif	1363652.125410	1363652.383995	1363653.090827	6.839779e-01	47	none	NaN	NaN
117	5	89	22	bathroom	sun_agguqiubmwhqqunb.tif	1363653.860464	1363654.119054	1363654.825864	6.756367e-01	12	none	NaN	NaN
117	5	90	19	bathroom	sun_aclfzgynxzxlbepz.tif	1363655.595512	1363655.854106	1363656.560871	7.340251e-01	9	none	NaN	NaN
117	5	91	25	bathroom	sun_agyqfjcfkdcydepw.tif	1363657.330570	1363657.589159	1363658.295916	6.672955e-01	15	37	1363660.367177	1
117	5	92	43	bathroom	sun_apjevzvycyhuqghb.tif	1363661.142674	1363661.401267	1363662.107974	6.672955e-01	33	none	NaN	NaN
117	5	93	54	bathroom	sun_auzqhkafidnkrwmo.tif	1363662.877729	1363663.136317	1363663.843027	7.757310e-01	44	none	NaN	NaN
117	5	94	51	bathroom	sun_atstyziqcmkahyxk.tif	1363664.612776	1363664.871374	1363665.578187	7.423663e-01	41	none	NaN	NaN
117	5	95	24	bathroom	sun_agrwbmhcpmfuwmsg.tif	1363666.339488	1363666.598081	1363667.304824	6.839779e-01	14	none	NaN	NaN
117	5	96	23	bathroom	sun_aghyqhbptboemmoq.tif	1363668.074542	1363668.333132	1363669.040003	6.923191e-01	13	37	1363672.183403	0
117	5	97	40	bathroom	sun_aofnryafpsjimzsb.tif	1363672.954373	1363673.212967	1363673.919785	6.506131e-01	30	none	NaN	NaN
117	5	98	41	bathroom	sun_aoybiabnpadelefl.tif	1363674.689430	1363674.948021	1363675.654911	7.507075e-01	31	none	NaN	NaN
117	5	99	48	bathroom	sun_aqrpegblszgcoujh.tif	1363676.424479	1363676.683074	1363677.389770	7.924134e-01	38	none	NaN	NaN
117	5	100	17	bathroom	sun_acegryoqftbzowsg.tif	1363678.159533	1363678.418121	1363679.124962	8.257782e-01	7	none	NaN	NaN
117	6	1	64	kitchen	sun_aadbddgrdsjugojn.tif	1363770.918076	1363771.176670	1363771.916913	8.424606e-01	54	none	NaN	NaN
117	6	2	81	kitchen	sun_aehawpgmrlhlvcow.tif	1363772.686495	1363772.945087	1363773.685237	7.090015e-01	71	none	NaN	NaN
117	6	3	108	kitchen	sun_aymvwlarqodbwuoc.tif	1363774.454912	1363774.713499	1363775.453674	6.839779e-01	98	none	NaN	NaN
117	6	4	65	kitchen	sun_aamedkxepzlwuxes.tif	1363776.223334	1363776.481925	1363777.222054	8.257782e-01	55	none	NaN	NaN
117	6	5	87	kitchen	sun_agorklincwxrdtga.tif	1363777.991751	1363778.250338	1363778.990591	8.174370e-01	77	none	NaN	NaN
117	6	6	90	kitchen	sun_ahdycvpopffkzzsu.tif	1363779.760169	1363780.018757	1363780.758808	7.507075e-01	80	none	NaN	NaN
117	6	7	99	kitchen	sun_akcjzhbbjlbogpdi.tif	1363781.520248	1363781.778835	1363782.518929	7.673898e-01	89	39	1363785.479489	1
117	6	8	93	kitchen	sun_ahspylgoovwmwvgk.tif	1363786.249932	1363786.508521	1363787.248601	7.006603e-01	83	none	NaN	NaN
117	6	9	62	kitchen	labelme_kxvouciolcpqplr.tif	1363788.018348	1363788.276939	1363789.016993	6.672955e-01	52	none	NaN	NaN
117	6	10	69	kitchen	sun_abdenxonkemggwsq.tif	1363789.778427	1363790.037016	1363790.777185	6.839779e-01	59	none	NaN	NaN
117	6	11	98	kitchen	sun_akchetnepxlcxhsu.tif	1363791.546846	1363791.805431	1363792.545646	7.840722e-01	88	none	NaN	NaN
117	6	12	106	kitchen	sun_awcpdzzznmweyyhv.tif	1363793.315292	1363793.573852	1363794.314007	7.924134e-01	96	none	NaN	NaN
117	6	13	109	kitchen	sun_aypmqwcualkenuoe.tif	1363795.083682	1363795.342268	1363796.082335	6.923191e-01	99	none	NaN	NaN
117	6	14	100	kitchen	sun_amjjdeyrggfqgmom.tif	1363796.852100	1363797.110689	1363797.850889	7.173427e-01	90	none	NaN	NaN
117	6	15	89	kitchen	sun_agzzivivdpnawacl.tif	1363798.620514	1363798.879111	1363799.619347	8.257782e-01	79	none	NaN	NaN
117	6	16	103	kitchen	sun_aunzlwrbjumxhwdj.tif	1363800.388935	1363800.647524	1363801.387767	6.923191e-01	93	none	NaN	NaN
117	6	17	78	kitchen	sun_adgqasybjyktddhj.tif	1363802.157353	1363802.415941	1363803.155999	8.341194e-01	68	none	NaN	NaN
117	6	18	68	kitchen	sun_aaxxjlsuzvqlgylf.tif	1363803.925770	1363804.184364	1363804.924420	8.257782e-01	58	none	NaN	NaN
117	6	19	71	kitchen	sun_abftihopvusyfakt.tif	1363805.694189	1363805.952783	1363806.692947	7.090015e-01	61	none	NaN	NaN
117	6	20	105	kitchen	sun_avszsnwsbuqfgzbn.tif	1363807.462610	1363807.721191	1363808.461266	6.506131e-01	95	37	1363811.943492	0
117	6	21	73	kitchen	sun_abrcnpqqhmjwekyf.tif	1363812.717812	1363812.976401	1363813.716500	7.590487e-01	63	none	NaN	NaN
117	6	22	67	kitchen	sun_aarfiyshqohlwkmo.tif	1363814.486233	1363814.744822	1363815.484863	7.757310e-01	57	none	NaN	NaN
117	6	23	86	kitchen	sun_aggjlwcdjsjcaemh.tif	1363816.246311	1363816.504899	1363817.245182	8.007546e-01	76	none	NaN	NaN
117	6	24	74	kitchen	sun_acfmftudsenhrfhy.tif	1363818.014729	1363818.273317	1363819.013498	6.589543e-01	64	none	NaN	NaN
117	6	25	66	kitchen	sun_aapllqyqlykszopd.tif	1363819.783145	1363820.041734	1363820.781911	7.173427e-01	56	none	NaN	NaN
117	6	26	95	kitchen	sun_aixorpehvfykdynp.tif	1363821.551568	1363821.810151	1363822.550198	7.590487e-01	85	none	NaN	NaN
117	6	27	70	kitchen	sun_abdxkyyxwfskuaqb.tif	1363823.320010	1363823.578576	1363824.318640	8.341194e-01	60	39	1363825.751389	1
117	6	28	75	kitchen	sun_acgtpgfybqjmzeyw.tif	1363826.523157	1363826.781747	1363827.521782	8.424606e-01	65	none	NaN	NaN
117	6	29	94	kitchen	sun_ahywdevtimnqcsln.tif	1363828.291577	1363828.550164	1363829.290262	7.423663e-01	84	none	NaN	NaN
117	6	30	85	kitchen	sun_afuyedyxivkhecmu.tif	1363830.059989	1363830.318585	1363831.058803	7.840722e-01	75	none	NaN	NaN
117	6	31	107	kitchen	sun_axyyrmzcupyhlivc.tif	1363831.828412	1363832.086998	1363832.827203	8.174370e-01	97	none	NaN	NaN
117	6	32	91	kitchen	sun_ahljzhgcdpomplvg.tif	1363833.596830	1363833.855412	1363834.595526	7.256839e-01	81	none	NaN	NaN
117	6	33	96	kitchen	sun_ajcbwwvdlsvjyzje.tif	1363835.365247	1363835.623841	1363836.364042	7.757310e-01	86	39	1363837.815476	1
117	6	34	82	kitchen	sun_aenotlpyftoioydp.tif	1363838.593444	1363838.852032	1363839.592168	7.590487e-01	72	37	1363840.519397	1
117	6	35	102	kitchen	sun_auaiucuqpdausiva.tif	1363841.296124	1363841.554711	1363842.294763	8.007546e-01	92	37	1363843.207474	1
117	6	36	72	kitchen	sun_abpwyqmlzafvklqo.tif	1363843.982117	1363844.240705	1363844.980763	7.256839e-01	62	none	NaN	NaN
117	6	37	84	kitchen	sun_aexklacwqwezaorf.tif	1363845.742192	1363846.000783	1363846.741047	7.673898e-01	74	37	1363848.279526	0
117	6	38	101	kitchen	sun_aqeaevwwwjoqhzvl.tif	1363849.053806	1363849.312399	1363850.052510	7.673898e-01	91	none	NaN	NaN
117	6	39	110	kitchen	sun_azmutvzbxypaceni.tif	1363850.822225	1363851.080815	1363851.820994	6.589543e-01	100	none	NaN	NaN
117	6	40	83	kitchen	sun_aeqdocilnnpuvuhx.tif	1363852.590642	1363852.849231	1363853.589427	8.007546e-01	73	none	NaN	NaN
117	6	41	77	kitchen	sun_acxkpeoqbwcxfvip.tif	1363854.359063	1363854.617652	1363855.357865	8.257782e-01	67	none	NaN	NaN
117	6	42	63	kitchen	labelme_rykdqxenmhulbdn.tif	1363856.127478	1363856.386068	1363857.126255	6.506131e-01	53	none	NaN	NaN
117	6	43	80	kitchen	sun_aegoxogugdkwpmpj.tif	1363857.895896	1363858.154485	1363858.894627	7.090015e-01	70	none	NaN	NaN
117	6	44	79	kitchen	sun_admlmbcdswaszruo.tif	1363859.664315	1363859.922910	1363860.663066	7.924134e-01	69	37	1363862.631417	1
117	6	45	61	kitchen	labelme_brsyyvweiuaazfr.tif	1363863.409694	1363863.668282	1363864.408514	7.006603e-01	51	none	NaN	NaN
117	6	46	97	kitchen	sun_ajkqhtgcbgpcwrwn.tif	1363865.178110	1363865.436699	1363866.176849	7.090015e-01	87	none	NaN	NaN
117	6	47	88	kitchen	sun_agubuxuukhzyzpdp.tif	1363866.946531	1363867.205121	1363867.945307	7.340251e-01	78	none	NaN	NaN
117	6	48	104	kitchen	sun_auticobqsbwgoppi.tif	1363868.714943	1363868.973539	1363869.713758	7.757310e-01	94	none	NaN	NaN
117	6	49	76	kitchen	sun_acwjdupvyjsugpay.tif	1363870.483366	1363870.741954	1363871.482086	7.590487e-01	66	none	NaN	NaN
117	6	50	92	kitchen	sun_ahpczsiumwwocjkv.tif	1363872.251784	1363872.510376	1363873.250438	7.173427e-01	82	none	NaN	NaN
117	6	51	105	kitchen	sun_avszsnwsbuqfgzbn.tif	1363874.020199	1363874.278786	1363875.018919	8.257782e-01	95	none	NaN	NaN
117	6	52	92	kitchen	sun_ahpczsiumwwocjkv.tif	1363875.788619	1363876.047208	1363876.787289	8.341194e-01	82	none	NaN	NaN
117	6	53	83	kitchen	sun_aeqdocilnnpuvuhx.tif	1363877.557043	1363877.815629	1363878.555753	7.340251e-01	73	none	NaN	NaN
117	6	54	94	kitchen	sun_ahywdevtimnqcsln.tif	1363879.325458	1363879.584042	1363880.324335	8.090958e-01	84	none	NaN	NaN
117	6	55	101	kitchen	sun_aqeaevwwwjoqhzvl.tif	1363881.093875	1363881.352465	1363882.092635	7.006603e-01	91	none	NaN	NaN
117	6	56	81	kitchen	sun_aehawpgmrlhlvcow.tif	1363882.862293	1363883.120883	1363883.861010	6.839779e-01	71	none	NaN	NaN
117	6	57	87	kitchen	sun_agorklincwxrdtga.tif	1363884.630713	1363884.889300	1363885.629401	8.090958e-01	77	none	NaN	NaN
117	6	58	89	kitchen	sun_agzzivivdpnawacl.tif	1363886.399127	1363886.657720	1363887.397920	7.256839e-01	79	none	NaN	NaN
117	6	59	74	kitchen	sun_acfmftudsenhrfhy.tif	1363888.167541	1363888.426143	1363889.166337	8.007546e-01	64	none	NaN	NaN
117	6	60	67	kitchen	sun_aarfiyshqohlwkmo.tif	1363889.935967	1363890.194556	1363890.934683	6.923191e-01	57	none	NaN	NaN
117	6	61	63	kitchen	labelme_rykdqxenmhulbdn.tif	1363891.704388	1363891.962988	1363892.703014	6.672955e-01	53	none	NaN	NaN
117	6	62	84	kitchen	sun_aexklacwqwezaorf.tif	1363893.472804	1363893.731392	1363894.471640	6.589543e-01	74	none	NaN	NaN
117	6	63	103	kitchen	sun_aunzlwrbjumxhwdj.tif	1363895.241219	1363895.499811	1363896.240061	6.923191e-01	93	39	1363899.255426	0
117	6	64	91	kitchen	sun_ahljzhgcdpomplvg.tif	1363900.029302	1363900.287886	1363901.027942	6.923191e-01	81	none	NaN	NaN
117	6	65	62	kitchen	labelme_kxvouciolcpqplr.tif	1363901.797718	1363902.056310	1363902.796470	7.423663e-01	52	37	1363904.247411	0
117	6	66	106	kitchen	sun_awcpdzzznmweyyhv.tif	1363905.025914	1363905.284499	1363906.024726	6.672955e-01	96	none	NaN	NaN
117	6	67	68	kitchen	sun_aaxxjlsuzvqlgylf.tif	1363906.794331	1363907.052924	1363907.793122	7.507075e-01	58	none	NaN	NaN
117	6	68	65	kitchen	sun_aamedkxepzlwuxes.tif	1363908.562750	1363908.821338	1363909.561381	7.340251e-01	55	none	NaN	NaN
117	6	69	96	kitchen	sun_ajcbwwvdlsvjyzje.tif	1363910.331167	1363910.589758	1363911.329858	7.006603e-01	86	none	NaN	NaN
117	6	70	110	kitchen	sun_azmutvzbxypaceni.tif	1363912.099585	1363912.358180	1363913.098418	8.424606e-01	100	none	NaN	NaN
117	6	71	77	kitchen	sun_acxkpeoqbwcxfvip.tif	1363913.868006	1363914.126596	1363914.866670	8.508018e-01	67	39	1363916.247387	1
117	6	72	86	kitchen	sun_aggjlwcdjsjcaemh.tif	1363917.021129	1363917.279720	1363918.019886	7.924134e-01	76	none	NaN	NaN
117	6	73	64	kitchen	sun_aadbddgrdsjugojn.tif	1363918.789548	1363919.048134	1363919.788383	6.756367e-01	54	none	NaN	NaN
117	6	74	76	kitchen	sun_acwjdupvyjsugpay.tif	1363920.557970	1363920.816553	1363921.556609	8.174370e-01	66	none	NaN	NaN
117	6	75	104	kitchen	sun_auticobqsbwgoppi.tif	1363922.326384	1363922.584973	1363923.325228	8.508018e-01	94	none	NaN	NaN
117	6	76	95	kitchen	sun_aixorpehvfykdynp.tif	1363924.094804	1363924.353391	1363925.093515	7.507075e-01	85	none	NaN	NaN
117	6	77	109	kitchen	sun_aypmqwcualkenuoe.tif	1363925.863220	1363926.121812	1363926.862039	8.341194e-01	99	none	NaN	NaN
117	6	78	108	kitchen	sun_aymvwlarqodbwuoc.tif	1363927.631637	1363927.890230	1363928.630411	6.756367e-01	98	37	1363930.119470	1
117	6	79	100	kitchen	sun_amjjdeyrggfqgmom.tif	1363930.893203	1363931.151794	1363931.891866	7.590487e-01	90	none	NaN	NaN
117	6	80	99	kitchen	sun_akcjzhbbjlbogpdi.tif	1363932.661623	1363932.920210	1363933.660325	6.589543e-01	89	none	NaN	NaN
117	6	81	70	kitchen	sun_abdxkyyxwfskuaqb.tif	1363934.430041	1363934.688628	1363935.428878	7.173427e-01	60	none	NaN	NaN
117	6	82	75	kitchen	sun_acgtpgfybqjmzeyw.tif	1363936.198456	1363936.457045	1363937.197182	6.672955e-01	65	37	1363943.031345	1
117	6	83	90	kitchen	sun_ahdycvpopffkzzsu.tif	1363943.805996	1363944.064584	1363944.804748	6.756367e-01	80	none	NaN	NaN
117	6	84	97	kitchen	sun_ajkqhtgcbgpcwrwn.tif	1363945.574412	1363945.833004	1363946.573047	6.839779e-01	87	none	NaN	NaN
117	6	85	88	kitchen	sun_agubuxuukhzyzpdp.tif	1363947.334487	1363947.593079	1363948.333248	6.506131e-01	78	none	NaN	NaN
117	6	86	80	kitchen	sun_aegoxogugdkwpmpj.tif	1363949.102905	1363949.361496	1363950.101661	8.090958e-01	70	none	NaN	NaN
117	6	87	82	kitchen	sun_aenotlpyftoioydp.tif	1363950.871326	1363951.129917	1363951.870156	7.256839e-01	72	none	NaN	NaN
117	6	88	102	kitchen	sun_auaiucuqpdausiva.tif	1363952.639745	1363952.898334	1363953.638390	7.924134e-01	92	39	1363956.519479	1
117	6	89	66	kitchen	sun_aapllqyqlykszopd.tif	1363957.294378	1363957.552946	1363958.293071	7.840722e-01	56	none	NaN	NaN
117	6	90	78	kitchen	sun_adgqasybjyktddhj.tif	1363959.062774	1363959.321360	1363960.061426	8.090958e-01	68	none	NaN	NaN
117	6	91	61	kitchen	labelme_brsyyvweiuaazfr.tif	1363960.831189	1363961.089778	1363961.829858	8.174370e-01	51	none	NaN	NaN
117	6	92	79	kitchen	sun_admlmbcdswaszruo.tif	1363962.599608	1363962.858198	1363963.598379	8.424606e-01	69	37	1363964.623347	1
117	6	93	73	kitchen	sun_abrcnpqqhmjwekyf.tif	1363965.394045	1363965.652632	1363966.392801	7.673898e-01	63	none	NaN	NaN
117	6	94	69	kitchen	sun_abdenxonkemggwsq.tif	1363967.162463	1363967.421048	1363968.161098	6.756367e-01	59	none	NaN	NaN
117	6	95	98	kitchen	sun_akchetnepxlcxhsu.tif	1363968.922541	1363969.181128	1363969.921299	7.757310e-01	88	none	NaN	NaN
117	6	96	107	kitchen	sun_axyyrmzcupyhlivc.tif	1363970.690957	1363970.949546	1363971.689600	7.840722e-01	97	none	NaN	NaN
117	6	97	71	kitchen	sun_abftihopvusyfakt.tif	1363972.459375	1363972.717964	1363973.458034	7.507075e-01	61	none	NaN	NaN
117	6	98	85	kitchen	sun_afuyedyxivkhecmu.tif	1363974.227795	1363974.486384	1363975.226422	7.340251e-01	75	none	NaN	NaN
117	6	99	93	kitchen	sun_ahspylgoovwmwvgk.tif	1363975.987871	1363976.246465	1363976.986535	7.423663e-01	83	none	NaN	NaN
117	6	100	72	kitchen	sun_abpwyqmlzafvklqo.tif	1363977.756287	1363978.014877	1363978.754919	7.423663e-01	62	none	NaN	NaN
117	7	1	30	bathroom	sun_ajlawzvmubibwbpy.tif	1364059.679107	1364059.937690	1364060.627782	6.672955e-01	20	37	1364061.471568	1
117	7	2	24	bathroom	sun_agrwbmhcpmfuwmsg.tif	1364062.248312	1364062.506904	1364063.196945	7.423663e-01	14	none	NaN	NaN
117	7	3	18	bathroom	sun_acgyywnybuveqsro.tif	1364063.966680	1364064.225274	1364064.915363	7.673898e-01	8	none	NaN	NaN
117	7	4	11	bathroom	labelme_sfxiulhjbhlyiyt.tif	1364065.685050	1364065.943640	1364066.633750	7.507075e-01	1	none	NaN	NaN
117	7	5	36	bathroom	sun_ambriybtogmepttm.tif	1364067.403419	1364067.662009	1364068.352044	7.840722e-01	26	none	NaN	NaN
117	7	6	59	bathroom	sun_axyrejkiiaqiurjk.tif	1364069.121788	1364069.380376	1364070.070568	8.007546e-01	49	39	1364071.487398	1
117	7	7	41	bathroom	sun_aoybiabnpadelefl.tif	1364072.258228	1364072.516814	1364073.206875	7.006603e-01	31	none	NaN	NaN
117	7	8	27	bathroom	sun_ahcvzmoyaycdoftf.tif	1364073.976596	1364074.235191	1364074.925233	7.340251e-01	17	none	NaN	NaN
117	7	9	33	bathroom	sun_aljolscmmzydegqp.tif	1364075.694963	1364075.953555	1364076.643669	7.423663e-01	23	none	NaN	NaN
117	7	10	19	bathroom	sun_aclfzgynxzxlbepz.tif	1364077.413337	1364077.671925	1364078.361975	6.756367e-01	9	none	NaN	NaN
117	7	11	50	bathroom	sun_aspsyogrekjtfozg.tif	1364079.131700	1364079.390292	1364080.080457	7.507075e-01	40	none	NaN	NaN
117	7	12	25	bathroom	sun_agyqfjcfkdcydepw.tif	1364080.850074	1364081.108660	1364081.798762	6.506131e-01	15	37	1364083.695588	1
117	7	13	48	bathroom	sun_aqrpegblszgcoujh.tif	1364084.470325	1364084.728916	1364085.418970	8.007546e-01	38	none	NaN	NaN
117	7	14	52	bathroom	sun_aunuadmjocsddsrl.tif	1364086.188691	1364086.447280	1364087.137492	8.341194e-01	42	none	NaN	NaN
117	7	15	45	bathroom	sun_apkxzenqapsujocq.tif	1364087.907060	1364088.165652	1364088.855757	7.924134e-01	35	none	NaN	NaN
117	7	16	54	bathroom	sun_auzqhkafidnkrwmo.tif	1364089.625431	1364089.884023	1364090.574214	6.839779e-01	44	none	NaN	NaN
117	7	17	43	bathroom	sun_apjevzvycyhuqghb.tif	1364091.343802	1364091.602390	1364092.292427	6.923191e-01	33	37	1364093.559604	1
117	7	18	23	bathroom	sun_aghyqhbptboemmoq.tif	1364094.330093	1364094.588679	1364095.278797	7.590487e-01	13	none	NaN	NaN
117	7	19	57	bathroom	sun_axldvoqbuvuggfmq.tif	1364096.048457	1364096.307046	1364096.997228	7.507075e-01	47	none	NaN	NaN
117	7	20	13	bathroom	sun_aavhrsfjbserjtht.tif	1364097.766833	1364098.025419	1364098.715607	8.174370e-01	3	none	NaN	NaN
117	7	21	28	bathroom	sun_ahijqszoswveeyji.tif	1364099.485196	1364099.743784	1364100.433798	7.340251e-01	18	39	1364102.295220	1
117	7	22	51	bathroom	sun_atstyziqcmkahyxk.tif	1364103.072081	1364103.330675	1364104.020682	7.256839e-01	41	none	NaN	NaN
117	7	23	55	bathroom	sun_avhrdrntsqrjzccq.tif	1364104.790454	1364105.049046	1364105.739047	7.090015e-01	45	none	NaN	NaN
117	7	24	40	bathroom	sun_aofnryafpsjimzsb.tif	1364106.500482	1364106.759071	1364107.449113	6.923191e-01	30	none	NaN	NaN
117	7	25	44	bathroom	sun_apkruvsevgegsdwp.tif	1364108.218849	1364108.477441	1364109.167439	8.090958e-01	34	none	NaN	NaN
117	7	26	42	bathroom	sun_apeeialkgkuxddgh.tif	1364109.937217	1364110.195809	1364110.885839	8.174370e-01	32	none	NaN	NaN
117	7	27	20	bathroom	sun_afcoljnjfoxjtgja.tif	1364111.655584	1364111.914175	1364112.604205	7.173427e-01	10	none	NaN	NaN
117	7	28	17	bathroom	sun_acegryoqftbzowsg.tif	1364113.373955	1364113.632547	1364114.322588	8.257782e-01	7	none	NaN	NaN
117	7	29	37	bathroom	sun_amzlamotzwfkwjco.tif	1364115.092325	1364115.350912	1364116.041048	6.923191e-01	27	none	NaN	NaN
117	7	30	16	bathroom	sun_acduarbnmmoglmiv.tif	1364116.810691	1364117.069285	1364117.759488	6.839779e-01	6	none	NaN	NaN
117	7	31	34	bathroom	sun_alkosphxlxwjwgjd.tif	1364118.529057	1364118.787651	1364119.477801	8.341194e-01	24	none	NaN	NaN
117	7	32	49	bathroom	sun_asfwthctfqerjvxr.tif	1364120.247430	1364120.506018	1364121.196040	7.673898e-01	39	none	NaN	NaN
117	7	33	31	bathroom	sun_akiytfaagpdsphgz.tif	1364121.965800	1364122.224382	1364122.914591	7.924134e-01	21	none	NaN	NaN
117	7	34	53	bathroom	sun_ausgutylgojavyoq.tif	1364123.684167	1364123.942755	1364124.632878	7.090015e-01	43	39	1364126.615544	1
117	7	35	39	bathroom	sun_anryaplzeujmzfkd.tif	1364127.387836	1364127.646426	1364128.336530	8.424606e-01	29	none	NaN	NaN
117	7	36	21	bathroom	sun_aggnnqpdorgxpvce.tif	1364129.106205	1364129.364795	1364130.054825	7.924134e-01	11	39	1364132.791536	1
117	7	37	56	bathroom	sun_awnqiikzaispgmwo.tif	1364133.568954	1364133.827548	1364134.517678	7.340251e-01	46	none	NaN	NaN
117	7	38	14	bathroom	sun_abapwbhyhkfixyex.tif	1364135.287326	1364135.545914	1364136.236008	8.174370e-01	4	none	NaN	NaN
117	7	39	60	bathroom	sun_azqyogdvyhahyram.tif	1364137.005695	1364137.264281	1364137.954377	7.590487e-01	50	none	NaN	NaN
117	7	40	38	bathroom	sun_anhioqovhscjqqwb.tif	1364138.724064	1364138.982654	1364139.672844	8.257782e-01	28	none	NaN	NaN
117	7	41	47	bathroom	sun_apynckhmoftszqoq.tif	1364140.442435	1364140.701022	1364141.391120	6.506131e-01	37	none	NaN	NaN
117	7	42	12	bathroom	sun_aapitsgbtktqubfy.tif	1364142.160799	1364142.419396	1364143.109449	8.007546e-01	2	none	NaN	NaN
117	7	43	22	bathroom	sun_agguqiubmwhqqunb.tif	1364143.879172	1364144.137763	1364144.827878	7.423663e-01	12	37	1364146.575405	1
117	7	44	46	bathroom	sun_apmqjbnwghzuhhzh.tif	1364147.349275	1364147.607867	1364148.298062	8.341194e-01	36	none	NaN	NaN
117	7	45	58	bathroom	sun_axxbkopsgyouuebh.tif	1364149.067643	1364149.326236	1364150.016381	8.257782e-01	48	none	NaN	NaN
117	7	46	35	bathroom	sun_alotolagknyrgtsk.tif	1364150.786014	1364151.044598	1364151.734802	8.424606e-01	25	none	NaN	NaN
117	7	47	26	bathroom	sun_ahaulkltgpkeeemi.tif	1364152.504383	1364152.762970	1364153.453019	8.090958e-01	16	none	NaN	NaN
117	7	48	29	bathroom	sun_ahqjwnzgolcaoidx.tif	1364154.222748	1364154.481342	1364155.171386	6.672955e-01	19	none	NaN	NaN
117	7	49	32	bathroom	sun_aleqenyvunhactkl.tif	1364155.941118	1364156.199709	1364156.889918	7.590487e-01	22	none	NaN	NaN
117	7	50	15	bathroom	sun_abjtwfukuwddzted.tif	1364157.659488	1364157.918065	1364158.608241	6.589543e-01	5	none	NaN	NaN
117	7	51	16	bathroom	sun_acduarbnmmoglmiv.tif	1364159.377859	1364159.636448	1364160.326493	7.173427e-01	6	none	NaN	NaN
117	7	52	53	bathroom	sun_ausgutylgojavyoq.tif	1364161.096226	1364161.354813	1364162.044964	8.341194e-01	43	none	NaN	NaN
117	7	53	23	bathroom	sun_aghyqhbptboemmoq.tif	1364162.814593	1364163.073181	1364163.763238	7.757310e-01	13	none	NaN	NaN
117	7	54	17	bathroom	sun_acegryoqftbzowsg.tif	1364164.532963	1364164.791555	1364165.481614	6.672955e-01	7	none	NaN	NaN
117	7	55	32	bathroom	sun_aleqenyvunhactkl.tif	1364166.251334	1364166.509923	1364167.199937	8.424606e-01	22	37	1364169.487506	1
117	7	56	37	bathroom	sun_amzlamotzwfkwjco.tif	1364170.263639	1364170.522231	1364171.212265	8.090958e-01	27	none	NaN	NaN
117	7	57	59	bathroom	sun_axyrejkiiaqiurjk.tif	1364171.982012	1364172.240595	1364172.930653	7.507075e-01	49	37	1364176.007431	0
117	7	58	41	bathroom	sun_aoybiabnpadelefl.tif	1364176.778425	1364177.037010	1364177.727005	7.006603e-01	31	none	NaN	NaN
117	7	59	26	bathroom	sun_ahaulkltgpkeeemi.tif	1364178.496793	1364178.755388	1364179.445532	8.090958e-01	16	none	NaN	NaN
117	7	60	55	bathroom	sun_avhrdrntsqrjzccq.tif	1364180.215162	1364180.473756	1364181.163788	6.756367e-01	45	none	NaN	NaN
117	7	61	40	bathroom	sun_aofnryafpsjimzsb.tif	1364181.933533	1364182.192122	1364182.882332	7.340251e-01	30	none	NaN	NaN
117	7	62	33	bathroom	sun_aljolscmmzydegqp.tif	1364183.651897	1364183.910489	1364184.600563	6.923191e-01	23	none	NaN	NaN
117	7	63	24	bathroom	sun_agrwbmhcpmfuwmsg.tif	1364185.370269	1364185.628860	1364186.319055	7.590487e-01	14	none	NaN	NaN
117	7	64	39	bathroom	sun_anryaplzeujmzfkd.tif	1364187.088637	1364187.347224	1364188.037307	8.508018e-01	29	none	NaN	NaN
117	7	65	38	bathroom	sun_anhioqovhscjqqwb.tif	1364188.807007	1364189.065595	1364189.755775	6.589543e-01	28	none	NaN	NaN
117	7	66	15	bathroom	sun_abjtwfukuwddzted.tif	1364190.525375	1364190.783966	1364191.474126	6.756367e-01	5	none	NaN	NaN
117	7	67	42	bathroom	sun_apeeialkgkuxddgh.tif	1364192.243741	1364192.502333	1364193.192534	7.840722e-01	32	none	NaN	NaN
117	7	68	11	bathroom	labelme_sfxiulhjbhlyiyt.tif	1364193.962116	1364194.220705	1364194.910840	8.508018e-01	1	none	NaN	NaN
117	7	69	12	bathroom	sun_aapitsgbtktqubfy.tif	1364195.680480	1364195.939070	1364196.629268	6.839779e-01	2	none	NaN	NaN
117	7	70	43	bathroom	sun_apjevzvycyhuqghb.tif	1364197.398849	1364197.657441	1364198.347623	7.256839e-01	33	none	NaN	NaN
117	7	71	47	bathroom	sun_apynckhmoftszqoq.tif	1364199.117214	1364199.375810	1364200.065979	8.007546e-01	37	37	1364201.399399	1
117	7	72	34	bathroom	sun_alkosphxlxwjwgjd.tif	1364202.170247	1364202.428835	1364203.118930	7.590487e-01	24	none	NaN	NaN
117	7	73	30	bathroom	sun_ajlawzvmubibwbpy.tif	1364203.888608	1364204.147201	1364204.837367	7.173427e-01	20	none	NaN	NaN
117	7	74	56	bathroom	sun_awnqiikzaispgmwo.tif	1364205.606982	1364205.865568	1364206.555594	6.589543e-01	46	none	NaN	NaN
117	7	75	36	bathroom	sun_ambriybtogmepttm.tif	1364207.325347	1364207.583938	1364208.274044	8.174370e-01	26	none	NaN	NaN
117	7	76	46	bathroom	sun_apmqjbnwghzuhhzh.tif	1364209.043717	1364209.302304	1364209.992299	6.672955e-01	36	none	NaN	NaN
117	7	77	14	bathroom	sun_abapwbhyhkfixyex.tif	1364210.762081	1364211.020675	1364211.710776	7.757310e-01	4	none	NaN	NaN
117	7	78	19	bathroom	sun_aclfzgynxzxlbepz.tif	1364212.480455	1364212.739046	1364213.429042	6.923191e-01	9	none	NaN	NaN
117	7	79	25	bathroom	sun_agyqfjcfkdcydepw.tif	1364214.198823	1364214.457413	1364215.147518	7.006603e-01	15	none	NaN	NaN
117	7	80	13	bathroom	sun_aavhrsfjbserjtht.tif	1364215.917189	1364216.175782	1364216.865823	7.256839e-01	3	none	NaN	NaN
117	7	81	60	bathroom	sun_azqyogdvyhahyram.tif	1364217.635559	1364217.894151	1364218.584267	7.423663e-01	50	none	NaN	NaN
117	7	82	50	bathroom	sun_aspsyogrekjtfozg.tif	1364219.353929	1364219.612521	1364220.302614	6.506131e-01	40	37	1364221.727567	0
117	7	83	22	bathroom	sun_agguqiubmwhqqunb.tif	1364222.498714	1364222.757299	1364223.447420	6.589543e-01	12	none	NaN	NaN
117	7	84	20	bathroom	sun_afcoljnjfoxjtgja.tif	1364224.208744	1364224.467324	1364225.157325	8.257782e-01	10	none	NaN	NaN
117	7	85	18	bathroom	sun_acgyywnybuveqsro.tif	1364225.918767	1364226.177358	1364226.867538	6.756367e-01	8	none	NaN	NaN
117	7	86	58	bathroom	sun_axxbkopsgyouuebh.tif	1364227.637135	1364227.895719	1364228.585908	7.757310e-01	48	none	NaN	NaN
117	7	87	35	bathroom	sun_alotolagknyrgtsk.tif	1364229.355506	1364229.614097	1364230.304255	7.256839e-01	25	none	NaN	NaN
117	7	88	44	bathroom	sun_apkruvsevgegsdwp.tif	1364231.073870	1364231.332462	1364232.022632	7.006603e-01	34	none	NaN	NaN
117	7	89	48	bathroom	sun_aqrpegblszgcoujh.tif	1364232.792241	1364233.050832	1364233.740920	7.840722e-01	38	none	NaN	NaN
117	7	90	45	bathroom	sun_apkxzenqapsujocq.tif	1364234.510614	1364234.769199	1364235.459338	7.840722e-01	35	none	NaN	NaN
117	7	91	57	bathroom	sun_axldvoqbuvuggfmq.tif	1364236.220488	1364236.470766	1364237.169130	7.090015e-01	47	39	1364238.495187	1
117	7	92	51	bathroom	sun_atstyziqcmkahyxk.tif	1364239.265321	1364239.523907	1364240.213930	7.173427e-01	41	none	NaN	NaN
117	7	93	31	bathroom	sun_akiytfaagpdsphgz.tif	1364240.983685	1364241.242277	1364241.932464	7.924134e-01	21	none	NaN	NaN
117	7	94	29	bathroom	sun_ahqjwnzgolcaoidx.tif	1364242.702059	1364242.960649	1364243.650747	8.257782e-01	19	none	NaN	NaN
117	7	95	54	bathroom	sun_auzqhkafidnkrwmo.tif	1364244.420425	1364244.679016	1364245.369101	8.424606e-01	44	37	1364246.599605	1
117	7	96	49	bathroom	sun_asfwthctfqerjvxr.tif	1364247.373348	1364247.631936	1364248.322124	7.757310e-01	39	none	NaN	NaN
117	7	97	52	bathroom	sun_aunuadmjocsddsrl.tif	1364249.091716	1364249.350306	1364250.040476	7.673898e-01	42	none	NaN	NaN
117	7	98	28	bathroom	sun_ahijqszoswveeyji.tif	1364250.810084	1364251.068671	1364251.758685	6.839779e-01	18	none	NaN	NaN
117	7	99	21	bathroom	sun_aggnnqpdorgxpvce.tif	1364252.528457	1364252.787044	1364253.477097	7.090015e-01	11	37	1364261.511420	1
117	7	100	27	bathroom	sun_ahcvzmoyaycdoftf.tif	1364262.288114	1364262.546712	1364263.236843	7.673898e-01	17	none	NaN	NaN
117	8	1	66	kitchen	sun_aapllqyqlykszopd.tif	1364431.447327	1364431.705914	1364432.387675	6.756367e-01	56	none	NaN	NaN
117	8	2	91	kitchen	sun_ahljzhgcdpomplvg.tif	1364433.157355	1364433.415943	1364434.097630	7.590487e-01	81	37	1364435.543447	1
117	8	3	104	kitchen	sun_auticobqsbwgoppi.tif	1364436.318822	1364436.577412	1364437.259077	8.508018e-01	94	none	NaN	NaN
117	8	4	109	kitchen	sun_aypmqwcualkenuoe.tif	1364438.028842	1364438.287433	1364438.969194	7.757310e-01	99	none	NaN	NaN
117	8	5	81	kitchen	sun_aehawpgmrlhlvcow.tif	1364439.738877	1364439.997461	1364440.679254	7.090015e-01	71	37	1364441.975426	1
117	8	6	101	kitchen	sun_aqeaevwwwjoqhzvl.tif	1364442.750192	1364443.008781	1364443.690479	7.256839e-01	91	none	NaN	NaN
117	8	7	85	kitchen	sun_afuyedyxivkhecmu.tif	1364444.460217	1364444.718822	1364445.400612	8.257782e-01	75	none	NaN	NaN
117	8	8	83	kitchen	sun_aeqdocilnnpuvuhx.tif	1364446.170244	1364446.428833	1364447.110663	6.923191e-01	73	none	NaN	NaN
117	8	9	80	kitchen	sun_aegoxogugdkwpmpj.tif	1364447.880273	1364448.138859	1364448.820521	8.090958e-01	70	none	NaN	NaN
117	8	10	86	kitchen	sun_aggjlwcdjsjcaemh.tif	1364449.590298	1364449.848883	1364450.530619	6.672955e-01	76	39	1364451.823540	1
117	8	11	65	kitchen	sun_aamedkxepzlwuxes.tif	1364452.601608	1364452.860198	1364453.541942	7.006603e-01	55	none	NaN	NaN
117	8	12	98	kitchen	sun_akchetnepxlcxhsu.tif	1364454.311643	1364454.570230	1364455.252071	7.006603e-01	88	none	NaN	NaN
117	8	13	77	kitchen	sun_acxkpeoqbwcxfvip.tif	1364456.021666	1364456.280256	1364456.962095	8.007546e-01	67	none	NaN	NaN
117	8	14	96	kitchen	sun_ajcbwwvdlsvjyzje.tif	1364457.731690	1364457.990279	1364458.672058	8.257782e-01	86	none	NaN	NaN
117	8	15	84	kitchen	sun_aexklacwqwezaorf.tif	1364459.441724	1364459.700313	1364460.382087	7.256839e-01	74	39	1364461.887388	1
117	8	16	79	kitchen	sun_admlmbcdswaszruo.tif	1364462.661575	1364462.920164	1364463.601865	7.507075e-01	69	none	NaN	NaN
117	8	17	89	kitchen	sun_agzzivivdpnawacl.tif	1364464.371604	1364464.630191	1364465.311958	8.424606e-01	79	37	1364466.407571	1
117	8	18	92	kitchen	sun_ahpczsiumwwocjkv.tif	1364467.182724	1364467.441328	1364468.123034	8.424606e-01	82	none	NaN	NaN
117	8	19	93	kitchen	sun_ahspylgoovwmwvgk.tif	1364468.892749	1364469.151335	1364469.833083	7.757310e-01	83	37	1364471.103211	0
117	8	20	87	kitchen	sun_agorklincwxrdtga.tif	1364471.879041	1364472.137628	1364472.819448	7.840722e-01	77	37	1364473.783345	1
117	8	21	68	kitchen	sun_aaxxjlsuzvqlgylf.tif	1364474.556687	1364474.815277	1364475.497111	6.839779e-01	58	none	NaN	NaN
117	8	22	76	kitchen	sun_acwjdupvyjsugpay.tif	1364476.266715	1364476.525306	1364477.207038	6.589543e-01	66	none	NaN	NaN
117	8	23	67	kitchen	sun_aarfiyshqohlwkmo.tif	1364477.976744	1364478.235336	1364478.916995	6.589543e-01	57	none	NaN	NaN
117	8	24	97	kitchen	sun_ajkqhtgcbgpcwrwn.tif	1364479.686772	1364479.945357	1364480.627049	7.507075e-01	87	none	NaN	NaN
117	8	25	110	kitchen	sun_azmutvzbxypaceni.tif	1364481.396795	1364481.655386	1364482.337096	7.173427e-01	100	none	NaN	NaN
117	8	26	105	kitchen	sun_avszsnwsbuqfgzbn.tif	1364483.106821	1364483.365414	1364484.047176	7.840722e-01	95	none	NaN	NaN
117	8	27	70	kitchen	sun_abdxkyyxwfskuaqb.tif	1364484.816849	1364485.075442	1364485.757090	8.508018e-01	60	none	NaN	NaN
117	8	28	69	kitchen	sun_abdenxonkemggwsq.tif	1364486.518537	1364486.777129	1364487.458972	7.507075e-01	59	none	NaN	NaN
117	8	29	64	kitchen	sun_aadbddgrdsjugojn.tif	1364488.228560	1364488.487155	1364489.168876	8.424606e-01	54	none	NaN	NaN
117	8	30	72	kitchen	sun_abpwyqmlzafvklqo.tif	1364489.938592	1364490.197183	1364490.878934	7.673898e-01	62	none	NaN	NaN
117	8	31	71	kitchen	sun_abftihopvusyfakt.tif	1364491.648615	1364491.907204	1364492.588866	7.590487e-01	61	none	NaN	NaN
117	8	32	108	kitchen	sun_aymvwlarqodbwuoc.tif	1364493.350300	1364493.608891	1364494.290568	8.341194e-01	98	none	NaN	NaN
117	8	33	102	kitchen	sun_auaiucuqpdausiva.tif	1364495.060332	1364495.318919	1364496.000690	7.340251e-01	92	none	NaN	NaN
117	8	34	75	kitchen	sun_acgtpgfybqjmzeyw.tif	1364496.770353	1364497.028948	1364497.710688	7.924134e-01	65	none	NaN	NaN
117	8	35	100	kitchen	sun_amjjdeyrggfqgmom.tif	1364498.480388	1364498.738973	1364499.420831	8.257782e-01	90	none	NaN	NaN
117	8	36	74	kitchen	sun_acfmftudsenhrfhy.tif	1364500.190412	1364500.449000	1364501.130729	7.673898e-01	64	none	NaN	NaN
117	8	37	73	kitchen	sun_abrcnpqqhmjwekyf.tif	1364501.900437	1364502.159026	1364502.840820	8.007546e-01	63	none	NaN	NaN
117	8	38	94	kitchen	sun_ahywdevtimnqcsln.tif	1364503.610465	1364503.869052	1364504.550807	8.174370e-01	84	none	NaN	NaN
117	8	39	106	kitchen	sun_awcpdzzznmweyyhv.tif	1364505.320492	1364505.579082	1364506.260879	6.923191e-01	96	none	NaN	NaN
117	8	40	103	kitchen	sun_aunzlwrbjumxhwdj.tif	1364507.030516	1364507.289105	1364507.970922	7.173427e-01	93	none	NaN	NaN
117	8	41	99	kitchen	sun_akcjzhbbjlbogpdi.tif	1364508.740544	1364508.999133	1364509.680783	7.423663e-01	89	none	NaN	NaN
117	8	42	63	kitchen	labelme_rykdqxenmhulbdn.tif	1364510.450570	1364510.709161	1364511.390898	8.257782e-01	53	none	NaN	NaN
117	8	43	61	kitchen	labelme_brsyyvweiuaazfr.tif	1364512.160600	1364512.419186	1364513.100926	7.507075e-01	51	none	NaN	NaN
117	8	44	88	kitchen	sun_agubuxuukhzyzpdp.tif	1364513.870624	1364514.129220	1364514.810946	7.590487e-01	78	none	NaN	NaN
117	8	45	95	kitchen	sun_aixorpehvfykdynp.tif	1364515.580654	1364515.839244	1364516.521107	7.090015e-01	85	none	NaN	NaN
117	8	46	62	kitchen	labelme_kxvouciolcpqplr.tif	1364517.290680	1364517.549266	1364518.231125	7.840722e-01	52	none	NaN	NaN
117	8	47	78	kitchen	sun_adgqasybjyktddhj.tif	1364519.000713	1364519.259299	1364519.941002	8.424606e-01	68	none	NaN	NaN
117	8	48	82	kitchen	sun_aenotlpyftoioydp.tif	1364520.710734	1364520.969325	1364521.651033	6.756367e-01	72	37	1364522.895454	1
117	8	49	90	kitchen	sun_ahdycvpopffkzzsu.tif	1364523.671998	1364523.930596	1364524.612390	7.423663e-01	80	none	NaN	NaN
117	8	50	107	kitchen	sun_axyyrmzcupyhlivc.tif	1364525.382026	1364525.640616	1364526.322305	6.839779e-01	97	none	NaN	NaN
117	8	51	109	kitchen	sun_aypmqwcualkenuoe.tif	1364527.092054	1364527.350640	1364528.032513	7.757310e-01	99	none	NaN	NaN
117	8	52	75	kitchen	sun_acgtpgfybqjmzeyw.tif	1364528.802085	1364529.060669	1364529.742408	7.173427e-01	65	none	NaN	NaN
117	8	53	76	kitchen	sun_acwjdupvyjsugpay.tif	1364530.512107	1364530.770694	1364531.452363	6.756367e-01	66	none	NaN	NaN
117	8	54	66	kitchen	sun_aapllqyqlykszopd.tif	1364532.222132	1364532.480724	1364533.162398	6.506131e-01	56	none	NaN	NaN
117	8	55	107	kitchen	sun_axyyrmzcupyhlivc.tif	1364533.932160	1364534.190753	1364534.872600	7.006603e-01	97	37	1364536.311380	1
117	8	56	64	kitchen	sun_aadbddgrdsjugojn.tif	1364537.085283	1364537.343881	1364538.025612	8.257782e-01	54	37	1364538.983474	1
117	8	57	101	kitchen	sun_aqeaevwwwjoqhzvl.tif	1364539.754593	1364540.013178	1364540.695032	6.923191e-01	91	none	NaN	NaN
117	8	58	79	kitchen	sun_admlmbcdswaszruo.tif	1364541.464625	1364541.723210	1364542.404950	7.256839e-01	69	none	NaN	NaN
117	8	59	61	kitchen	labelme_brsyyvweiuaazfr.tif	1364543.174646	1364543.433242	1364544.114895	7.590487e-01	51	none	NaN	NaN
117	8	60	92	kitchen	sun_ahpczsiumwwocjkv.tif	1364544.884672	1364545.143269	1364545.825079	7.590487e-01	82	none	NaN	NaN
117	8	61	63	kitchen	labelme_rykdqxenmhulbdn.tif	1364546.594699	1364546.853288	1364547.535046	7.340251e-01	53	none	NaN	NaN
117	8	62	93	kitchen	sun_ahspylgoovwmwvgk.tif	1364548.304730	1364548.563319	1364549.245140	7.256839e-01	83	none	NaN	NaN
117	8	63	106	kitchen	sun_awcpdzzznmweyyhv.tif	1364550.014754	1364550.273348	1364550.955186	6.923191e-01	96	none	NaN	NaN
117	8	64	83	kitchen	sun_aeqdocilnnpuvuhx.tif	1364551.724787	1364551.983375	1364552.665078	6.839779e-01	73	none	NaN	NaN
117	8	65	70	kitchen	sun_abdxkyyxwfskuaqb.tif	1364553.434809	1364553.693396	1364554.375149	7.006603e-01	60	none	NaN	NaN
117	8	66	84	kitchen	sun_aexklacwqwezaorf.tif	1364555.144841	1364555.403423	1364556.085237	7.757310e-01	74	none	NaN	NaN
117	8	67	78	kitchen	sun_adgqasybjyktddhj.tif	1364556.854864	1364557.113454	1364557.795183	7.924134e-01	68	none	NaN	NaN
117	8	68	77	kitchen	sun_acxkpeoqbwcxfvip.tif	1364558.564889	1364558.823478	1364559.505194	7.840722e-01	67	none	NaN	NaN
117	8	69	74	kitchen	sun_acfmftudsenhrfhy.tif	1364560.274917	1364560.533518	1364561.215225	8.090958e-01	64	none	NaN	NaN
117	8	70	94	kitchen	sun_ahywdevtimnqcsln.tif	1364561.984948	1364562.243535	1364562.925215	7.090015e-01	84	39	1364564.919572	1
117	8	71	95	kitchen	sun_aixorpehvfykdynp.tif	1364565.696957	1364565.955541	1364566.637358	6.672955e-01	85	37	1364571.167343	0
117	8	72	73	kitchen	sun_abrcnpqqhmjwekyf.tif	1364571.944780	1364572.203400	1364572.885201	8.007546e-01	63	37	1364574.151357	1
117	8	73	88	kitchen	sun_agubuxuukhzyzpdp.tif	1364574.922753	1364575.181345	1364575.863111	8.174370e-01	78	none	NaN	NaN
117	8	74	98	kitchen	sun_akchetnepxlcxhsu.tif	1364576.632786	1364576.891374	1364577.573211	8.007546e-01	88	none	NaN	NaN
117	8	75	80	kitchen	sun_aegoxogugdkwpmpj.tif	1364578.342812	1364578.601406	1364579.283158	6.672955e-01	70	37	1364582.599631	0
117	8	76	65	kitchen	sun_aamedkxepzlwuxes.tif	1364583.372792	1364583.631382	1364584.313133	7.673898e-01	55	none	NaN	NaN
117	8	77	103	kitchen	sun_aunzlwrbjumxhwdj.tif	1364585.082822	1364585.341410	1364586.023269	7.423663e-01	93	none	NaN	NaN
117	8	78	86	kitchen	sun_aggjlwcdjsjcaemh.tif	1364586.792845	1364587.051439	1364587.733111	8.090958e-01	76	none	NaN	NaN
117	8	79	71	kitchen	sun_abftihopvusyfakt.tif	1364588.502875	1364588.761462	1364589.443286	7.423663e-01	61	none	NaN	NaN
117	8	80	81	kitchen	sun_aehawpgmrlhlvcow.tif	1364590.212900	1364590.471491	1364591.153326	8.341194e-01	71	none	NaN	NaN
117	8	81	96	kitchen	sun_ajcbwwvdlsvjyzje.tif	1364591.922931	1364592.181517	1364592.863258	6.589543e-01	86	none	NaN	NaN
117	8	82	102	kitchen	sun_auaiucuqpdausiva.tif	1364593.632954	1364593.891547	1364594.573229	6.923191e-01	92	none	NaN	NaN
117	8	83	62	kitchen	labelme_kxvouciolcpqplr.tif	1364595.342979	1364595.601575	1364596.283364	7.340251e-01	52	none	NaN	NaN
117	8	84	108	kitchen	sun_aymvwlarqodbwuoc.tif	1364597.053006	1364597.311598	1364597.993335	6.589543e-01	98	none	NaN	NaN
117	8	85	72	kitchen	sun_abpwyqmlzafvklqo.tif	1364598.763032	1364599.021626	1364599.703354	8.174370e-01	62	none	NaN	NaN
117	8	86	87	kitchen	sun_agorklincwxrdtga.tif	1364600.473060	1364600.731651	1364601.413335	7.340251e-01	77	none	NaN	NaN
117	8	87	90	kitchen	sun_ahdycvpopffkzzsu.tif	1364602.183087	1364602.441677	1364603.123369	7.924134e-01	80	none	NaN	NaN
117	8	88	82	kitchen	sun_aenotlpyftoioydp.tif	1364603.893115	1364604.151721	1364604.833522	6.839779e-01	72	none	NaN	NaN
117	8	89	100	kitchen	sun_amjjdeyrggfqgmom.tif	1364605.603140	1364605.861734	1364606.543506	7.173427e-01	90	39	1364607.895515	1
117	8	90	67	kitchen	sun_aarfiyshqohlwkmo.tif	1364608.672847	1364608.931437	1364609.613176	7.090015e-01	57	none	NaN	NaN
117	8	91	104	kitchen	sun_auticobqsbwgoppi.tif	1364610.382877	1364610.641465	1364611.323271	8.090958e-01	94	none	NaN	NaN
117	8	92	110	kitchen	sun_azmutvzbxypaceni.tif	1364612.092904	1364612.351486	1364613.033197	7.673898e-01	100	none	NaN	NaN
117	8	93	105	kitchen	sun_avszsnwsbuqfgzbn.tif	1364613.802932	1364614.061522	1364614.743381	8.174370e-01	95	none	NaN	NaN
117	8	94	97	kitchen	sun_ajkqhtgcbgpcwrwn.tif	1364615.512953	1364615.771549	1364616.453278	8.341194e-01	87	none	NaN	NaN
117	8	95	85	kitchen	sun_afuyedyxivkhecmu.tif	1364617.222985	1364617.481575	1364618.163261	8.341194e-01	75	none	NaN	NaN
117	8	96	89	kitchen	sun_agzzivivdpnawacl.tif	1364618.933012	1364619.191602	1364619.873302	7.924134e-01	79	none	NaN	NaN
117	8	97	91	kitchen	sun_ahljzhgcdpomplvg.tif	1364620.643038	1364620.901629	1364621.583327	6.672955e-01	81	none	NaN	NaN
117	8	98	99	kitchen	sun_akcjzhbbjlbogpdi.tif	1364622.353069	1364622.611651	1364623.293307	6.506131e-01	89	none	NaN	NaN
117	8	99	68	kitchen	sun_aaxxjlsuzvqlgylf.tif	1364624.063091	1364624.321681	1364625.003423	6.756367e-01	58	none	NaN	NaN
117	8	100	69	kitchen	sun_abdenxonkemggwsq.tif	1364625.773117	1364626.031708	1364626.713397	6.506131e-01	59	none	NaN	NaN
117	9	1	11	bathroom	labelme_sfxiulhjbhlyiyt.tif	1364722.435520	1364722.694108	1364723.342465	7.757310e-01	1	none	NaN	NaN
117	9	2	24	bathroom	sun_agrwbmhcpmfuwmsg.tif	1364724.112176	1364724.370770	1364725.019082	8.508018e-01	14	none	NaN	NaN
117	9	3	60	bathroom	sun_azqyogdvyhahyram.tif	1364725.788841	1364726.047426	1364726.695797	7.006603e-01	50	none	NaN	NaN
117	9	4	19	bathroom	sun_aclfzgynxzxlbepz.tif	1364727.465496	1364727.724091	1364728.372596	7.924134e-01	9	none	NaN	NaN
117	9	5	14	bathroom	sun_abapwbhyhkfixyex.tif	1364729.142157	1364729.400748	1364730.049162	8.174370e-01	4	none	NaN	NaN
117	9	6	15	bathroom	sun_abjtwfukuwddzted.tif	1364730.818821	1364731.077411	1364731.725871	6.923191e-01	5	39	1364733.719452	1
117	9	7	21	bathroom	sun_aggnnqpdorgxpvce.tif	1364734.497460	1364734.756052	1364735.404507	7.507075e-01	11	none	NaN	NaN
117	9	8	38	bathroom	sun_anhioqovhscjqqwb.tif	1364736.174126	1364736.432715	1364737.081183	6.506131e-01	28	none	NaN	NaN
117	9	9	44	bathroom	sun_apkruvsevgegsdwp.tif	1364737.850788	1364738.109391	1364738.757783	6.589543e-01	34	none	NaN	NaN
117	9	10	56	bathroom	sun_awnqiikzaispgmwo.tif	1364739.527444	1364739.786038	1364740.434448	6.589543e-01	46	none	NaN	NaN
117	9	11	16	bathroom	sun_acduarbnmmoglmiv.tif	1364741.204107	1364741.462696	1364742.110991	8.257782e-01	6	none	NaN	NaN
117	9	12	45	bathroom	sun_apkxzenqapsujocq.tif	1364742.880766	1364743.139355	1364743.787722	8.007546e-01	35	none	NaN	NaN
117	9	13	18	bathroom	sun_acgyywnybuveqsro.tif	1364744.557424	1364744.816013	1364745.464428	8.424606e-01	8	none	NaN	NaN
117	9	14	20	bathroom	sun_afcoljnjfoxjtgja.tif	1364746.234087	1364746.492674	1364747.141159	7.757310e-01	10	37	1364748.215695	1
117	9	15	49	bathroom	sun_asfwthctfqerjvxr.tif	1364748.986815	1364749.245400	1364749.893763	8.090958e-01	39	none	NaN	NaN
117	9	16	31	bathroom	sun_akiytfaagpdsphgz.tif	1364750.663472	1364750.922061	1364751.570552	7.590487e-01	21	none	NaN	NaN
117	9	17	17	bathroom	sun_acegryoqftbzowsg.tif	1364752.340134	1364752.598723	1364753.247141	7.423663e-01	7	none	NaN	NaN
117	9	18	54	bathroom	sun_auzqhkafidnkrwmo.tif	1364754.016795	1364754.275385	1364754.923871	8.508018e-01	44	none	NaN	NaN
117	9	19	50	bathroom	sun_aspsyogrekjtfozg.tif	1364755.693455	1364755.952047	1364756.600416	8.174370e-01	40	none	NaN	NaN
117	9	20	34	bathroom	sun_alkosphxlxwjwgjd.tif	1364757.370118	1364757.628723	1364758.277129	7.340251e-01	24	37	1364759.639626	1
117	9	21	53	bathroom	sun_ausgutylgojavyoq.tif	1364760.414799	1364760.673388	1364761.321733	6.839779e-01	43	none	NaN	NaN
117	9	22	13	bathroom	sun_aavhrsfjbserjtht.tif	1364762.091455	1364762.350044	1364762.998520	6.672955e-01	3	none	NaN	NaN
117	9	23	52	bathroom	sun_aunuadmjocsddsrl.tif	1364763.768120	1364764.026702	1364764.675156	6.506131e-01	42	none	NaN	NaN
117	9	24	12	bathroom	sun_aapitsgbtktqubfy.tif	1364765.444778	1364765.703365	1364766.351910	7.590487e-01	2	none	NaN	NaN
117	9	25	39	bathroom	sun_anryaplzeujmzfkd.tif	1364767.121441	1364767.380032	1364768.028407	7.340251e-01	29	none	NaN	NaN
117	9	26	29	bathroom	sun_ahqjwnzgolcaoidx.tif	1364768.798097	1364769.056687	1364769.705114	7.090015e-01	19	none	NaN	NaN
117	9	27	26	bathroom	sun_ahaulkltgpkeeemi.tif	1364770.474761	1364770.733345	1364771.381752	6.672955e-01	16	37	1364773.887526	1
117	9	28	51	bathroom	sun_atstyziqcmkahyxk.tif	1364774.662241	1364774.920834	1364775.569257	7.090015e-01	41	none	NaN	NaN
