subject	block	trial	texture	category	image	trialOnset	itiOnset	trialEnd	iti	EEGtrigger	responseKey	responseTime	accuracy
101	1	1	13	bathroom	sun_aavhrsfjbserjtht.tif	424448.893486	424449.143305	424449.890112	7.505654e-01	3	none	NaN	NaN
101	1	2	49	bathroom	sun_asfwthctfqerjvxr.tif	424450.661592	424450.911874	424451.658134	8.506407e-01	39	none	NaN	NaN
101	1	3	25	bathroom	sun_agyqfjcfkdcydepw.tif	424452.429703	424452.679940	424453.426138	6.671692e-01	15	37	424454.449573	0
101	1	4	38	bathroom	sun_anhioqovhscjqqwb.tif	424455.248655	424455.498997	424456.245126	7.839238e-01	28	none	NaN	NaN
101	1	5	37	bathroom	sun_amzlamotzwfkwjco.tif	424457.016748	424457.266995	424458.013370	7.172069e-01	27	none	NaN	NaN
101	1	6	16	bathroom	sun_acduarbnmmoglmiv.tif	424458.784859	424459.035066	424459.781306	6.838484e-01	6	none	NaN	NaN
101	1	7	41	bathroom	sun_aoybiabnpadelefl.tif	424460.552953	424460.803063	424461.549574	7.005277e-01	31	37	424462.537674	0
101	1	8	55	bathroom	sun_avhrdrntsqrjzccq.tif	424463.338566	424463.588884	424464.335135	7.005277e-01	45	none	NaN	NaN
101	1	9	60	bathroom	sun_azqyogdvyhahyram.tif	424465.106669	424465.356958	424466.103085	7.338861e-01	50	39	424467.433660	0
101	1	10	29	bathroom	sun_ahqjwnzgolcaoidx.tif	424468.225880	424468.476142	424469.222418	7.338861e-01	19	none	NaN	NaN
101	1	11	15	bathroom	sun_abjtwfukuwddzted.tif	424469.994020	424470.244296	424470.990538	8.339615e-01	5	39	424471.729596	0
101	1	12	39	bathroom	sun_anryaplzeujmzfkd.tif	424472.529391	424472.779709	424473.525986	6.838484e-01	29	none	NaN	NaN
101	1	13	17	bathroom	sun_acegryoqftbzowsg.tif	424474.297503	424474.547705	424475.294127	8.006030e-01	7	none	NaN	NaN
101	1	14	30	bathroom	sun_ajlawzvmubibwbpy.tif	424476.065579	424476.315391	424477.062030	8.172823e-01	20	none	NaN	NaN
101	1	15	23	bathroom	sun_aghyqhbptboemmoq.tif	424477.833686	424478.083956	424478.830199	7.839238e-01	13	none	NaN	NaN
101	1	16	53	bathroom	sun_ausgutylgojavyoq.tif	424479.601793	424479.851926	424480.598375	7.505654e-01	43	none	NaN	NaN
101	1	17	59	bathroom	sun_axyrejkiiaqiurjk.tif	424481.369888	424481.620167	424482.366367	7.338861e-01	49	none	NaN	NaN
101	1	18	58	bathroom	sun_axxbkopsgyouuebh.tif	424483.138000	424483.388097	424484.134491	7.338861e-01	48	none	NaN	NaN
101	1	19	14	bathroom	sun_abapwbhyhkfixyex.tif	424484.906100	424485.156461	424485.902702	7.005277e-01	4	none	NaN	NaN
101	1	20	33	bathroom	sun_aljolscmmzydegqp.tif	424486.674224	424486.924410	424487.670685	6.838484e-01	23	none	NaN	NaN
101	1	21	46	bathroom	sun_apmqjbnwghzuhhzh.tif	424488.442328	424488.692479	424489.438770	7.338861e-01	36	37	424490.257705	0
101	1	22	18	bathroom	sun_acgyywnybuveqsro.tif	424491.061123	424491.311214	424492.057602	6.671692e-01	8	none	NaN	NaN
101	1	23	19	bathroom	sun_aclfzgynxzxlbepz.tif	424492.829209	424493.079352	424493.825817	7.839238e-01	9	none	NaN	NaN
101	1	24	11	bathroom	labelme_sfxiulhjbhlyiyt.tif	424494.597330	424494.847522	424495.593781	6.671692e-01	1	37	424496.401538	0
101	1	25	27	bathroom	sun_ahcvzmoyaycdoftf.tif	424497.199452	424497.449684	424498.195880	8.172823e-01	17	none	NaN	NaN
101	1	26	21	bathroom	sun_aggnnqpdorgxpvce.tif	424498.967557	424499.217791	424499.964159	7.672446e-01	11	none	NaN	NaN
101	1	27	42	bathroom	sun_apeeialkgkuxddgh.tif	424500.735643	424500.985811	424501.732166	7.505654e-01	32	none	NaN	NaN
101	1	28	56	bathroom	sun_awnqiikzaispgmwo.tif	424502.503766	424502.753983	424503.500213	8.172823e-01	46	none	NaN	NaN
101	1	29	44	bathroom	sun_apkruvsevgegsdwp.tif	424504.271837	424504.522079	424505.268404	7.505654e-01	34	none	NaN	NaN
101	1	30	20	bathroom	sun_afcoljnjfoxjtgja.tif	424506.039958	424506.290086	424507.036379	7.172069e-01	10	none	NaN	NaN
101	1	31	28	bathroom	sun_ahijqszoswveeyji.tif	424507.808060	424508.058378	424508.804470	8.506407e-01	18	none	NaN	NaN
101	1	32	26	bathroom	sun_ahaulkltgpkeeemi.tif	424509.576172	424509.826444	424510.572663	7.672446e-01	16	none	NaN	NaN
101	1	33	22	bathroom	sun_agguqiubmwhqqunb.tif	424511.344272	424511.594595	424512.340864	7.005277e-01	12	none	NaN	NaN
101	1	34	47	bathroom	sun_apynckhmoftszqoq.tif	424513.112328	424513.362667	424514.108897	7.672446e-01	37	none	NaN	NaN
101	1	35	45	bathroom	sun_apkxzenqapsujocq.tif	424514.880478	424515.130628	424515.876892	8.172823e-01	35	none	NaN	NaN
101	1	36	34	bathroom	sun_alkosphxlxwjwgjd.tif	424516.648576	424516.898763	424517.645004	8.339615e-01	24	none	NaN	NaN
101	1	37	12	bathroom	sun_aapitsgbtktqubfy.tif	424518.416677	424518.666942	424519.413149	8.006030e-01	2	none	NaN	NaN
101	1	38	52	bathroom	sun_aunuadmjocsddsrl.tif	424520.184804	424520.435086	424521.181406	7.005277e-01	42	none	NaN	NaN
101	1	39	50	bathroom	sun_aspsyogrekjtfozg.tif	424521.952883	424522.203222	424522.949380	7.839238e-01	40	none	NaN	NaN
101	1	40	54	bathroom	sun_auzqhkafidnkrwmo.tif	424523.721014	424523.971332	424524.717531	6.504900e-01	44	none	NaN	NaN
101	1	41	31	bathroom	sun_akiytfaagpdsphgz.tif	424525.489101	424525.739425	424526.485717	6.504900e-01	21	37	424527.305858	0
101	1	42	48	bathroom	sun_aqrpegblszgcoujh.tif	424528.107919	424528.358267	424529.104491	8.172823e-01	38	none	NaN	NaN
101	1	43	35	bathroom	sun_alotolagknyrgtsk.tif	424529.876006	424530.126227	424530.872435	8.006030e-01	25	none	NaN	NaN
101	1	44	24	bathroom	sun_agrwbmhcpmfuwmsg.tif	424531.644107	424531.894354	424532.640708	7.172069e-01	14	none	NaN	NaN
101	1	45	40	bathroom	sun_aofnryafpsjimzsb.tif	424533.412221	424533.662445	424534.408785	7.839238e-01	30	none	NaN	NaN
101	1	46	36	bathroom	sun_ambriybtogmepttm.tif	424535.180322	424535.430580	424536.177171	7.672446e-01	26	none	NaN	NaN
101	1	47	57	bathroom	sun_axldvoqbuvuggfmq.tif	424536.948432	424537.198775	424537.944936	8.339615e-01	47	none	NaN	NaN
101	1	48	43	bathroom	sun_apjevzvycyhuqghb.tif	424538.716536	424538.966639	424539.712940	6.504900e-01	33	none	NaN	NaN
101	1	49	32	bathroom	sun_aleqenyvunhactkl.tif	424540.484634	424540.734953	424541.481130	7.005277e-01	22	none	NaN	NaN
101	1	50	51	bathroom	sun_atstyziqcmkahyxk.tif	424542.252758	424542.502850	424543.249189	8.006030e-01	41	none	NaN	NaN
101	1	51	59	bathroom	sun_axyrejkiiaqiurjk.tif	424544.020831	424544.271172	424545.017232	7.005277e-01	49	none	NaN	NaN
101	1	52	11	bathroom	labelme_sfxiulhjbhlyiyt.tif	424545.788951	424546.039148	424546.785646	7.338861e-01	1	none	NaN	NaN
101	1	53	25	bathroom	sun_agyqfjcfkdcydepw.tif	424547.556993	424547.807372	424548.553588	7.505654e-01	15	none	NaN	NaN
101	1	54	16	bathroom	sun_acduarbnmmoglmiv.tif	424549.325159	424549.575360	424550.321608	7.172069e-01	6	none	NaN	NaN
101	1	55	21	bathroom	sun_aggnnqpdorgxpvce.tif	424551.093251	424551.343471	424552.089726	7.505654e-01	11	none	NaN	NaN
101	1	56	51	bathroom	sun_atstyziqcmkahyxk.tif	424552.861387	424553.111644	424553.857835	7.839238e-01	41	none	NaN	NaN
101	1	57	32	bathroom	sun_aleqenyvunhactkl.tif	424554.629465	424554.879719	424555.625958	8.006030e-01	22	none	NaN	NaN
101	1	58	33	bathroom	sun_aljolscmmzydegqp.tif	424556.397597	424556.647809	424557.394039	7.672446e-01	23	none	NaN	NaN
101	1	59	18	bathroom	sun_acgyywnybuveqsro.tif	424558.165689	424558.415865	424559.162228	7.172069e-01	8	none	NaN	NaN
101	1	60	36	bathroom	sun_ambriybtogmepttm.tif	424559.933779	424560.184052	424560.930240	7.839238e-01	26	none	NaN	NaN
101	1	61	13	bathroom	sun_aavhrsfjbserjtht.tif	424561.701873	424561.952138	424562.698451	8.506407e-01	3	none	NaN	NaN
101	1	62	56	bathroom	sun_awnqiikzaispgmwo.tif	424563.469999	424563.720083	424564.466590	7.672446e-01	46	37	424565.233506	0
101	1	63	14	bathroom	sun_abapwbhyhkfixyex.tif	424566.022054	424566.272287	424567.018511	6.671692e-01	4	none	NaN	NaN
101	1	64	45	bathroom	sun_apkxzenqapsujocq.tif	424567.790188	424568.040528	424568.786657	8.172823e-01	35	none	NaN	NaN
101	1	65	38	bathroom	sun_anhioqovhscjqqwb.tif	424569.558269	424569.808628	424570.554773	8.339615e-01	28	37	424572.001509	1
101	1	66	44	bathroom	sun_apkruvsevgegsdwp.tif	424572.794247	424573.044596	424573.790765	8.006030e-01	34	39	424576.081628	0
101	1	67	35	bathroom	sun_alotolagknyrgtsk.tif	424576.880900	424577.131217	424577.877354	6.671692e-01	25	none	NaN	NaN
101	1	68	55	bathroom	sun_avhrdrntsqrjzccq.tif	424578.649003	424578.899244	424579.645444	6.838484e-01	45	37	424580.489588	0
101	1	69	22	bathroom	sun_agguqiubmwhqqunb.tif	424581.284483	424581.534573	424582.280896	6.838484e-01	12	none	NaN	NaN
101	1	70	24	bathroom	sun_agrwbmhcpmfuwmsg.tif	424583.052584	424583.302729	424584.049138	7.505654e-01	14	none	NaN	NaN
101	1	71	47	bathroom	sun_apynckhmoftszqoq.tif	424584.820698	424585.070916	424585.817345	8.339615e-01	37	none	NaN	NaN
101	1	72	53	bathroom	sun_ausgutylgojavyoq.tif	424586.588786	424586.839007	424587.585303	7.672446e-01	43	none	NaN	NaN
101	1	73	15	bathroom	sun_abjtwfukuwddzted.tif	424588.356901	424588.607044	424589.353449	8.006030e-01	5	none	NaN	NaN
101	1	74	28	bathroom	sun_ahijqszoswveeyji.tif	424590.125019	424590.375088	424591.121640	7.338861e-01	18	none	NaN	NaN
101	1	75	26	bathroom	sun_ahaulkltgpkeeemi.tif	424591.893145	424592.143334	424592.889755	8.172823e-01	16	39	424594.193638	0
101	1	76	58	bathroom	sun_axxbkopsgyouuebh.tif	424594.995636	424595.245867	424595.992205	6.838484e-01	48	none	NaN	NaN
101	1	77	17	bathroom	sun_acegryoqftbzowsg.tif	424596.763744	424597.013941	424597.760320	6.838484e-01	7	39	424598.713570	0
101	1	78	54	bathroom	sun_auzqhkafidnkrwmo.tif	424599.515972	424599.766120	424600.512478	8.339615e-01	44	none	NaN	NaN
101	1	79	30	bathroom	sun_ajlawzvmubibwbpy.tif	424601.284084	424601.534351	424602.280596	7.172069e-01	20	none	NaN	NaN
101	1	80	19	bathroom	sun_aclfzgynxzxlbepz.tif	424603.052180	424603.302434	424604.048673	8.172823e-01	9	none	NaN	NaN
101	1	81	60	bathroom	sun_azqyogdvyhahyram.tif	424604.820275	424605.070638	424605.816730	7.172069e-01	50	none	NaN	NaN
101	1	82	50	bathroom	sun_aspsyogrekjtfozg.tif	424606.588382	424606.838655	424607.584826	7.839238e-01	40	none	NaN	NaN
101	1	83	42	bathroom	sun_apeeialkgkuxddgh.tif	424608.356482	424608.606702	424609.353052	7.005277e-01	32	none	NaN	NaN
101	1	84	49	bathroom	sun_asfwthctfqerjvxr.tif	424610.124606	424610.374952	424611.121027	7.672446e-01	39	none	NaN	NaN
101	1	85	27	bathroom	sun_ahcvzmoyaycdoftf.tif	424611.892708	424612.142822	424612.889289	7.005277e-01	17	none	NaN	NaN
101	1	86	12	bathroom	sun_aapitsgbtktqubfy.tif	424613.660765	424613.911014	424614.657283	7.338861e-01	2	none	NaN	NaN
101	1	87	23	bathroom	sun_aghyqhbptboemmoq.tif	424615.428920	424615.679041	424616.425366	6.504900e-01	13	37	424617.785488	0
101	1	88	20	bathroom	sun_afcoljnjfoxjtgja.tif	424618.581477	424618.831766	424619.577887	8.339615e-01	10	none	NaN	NaN
101	1	89	40	bathroom	sun_aofnryafpsjimzsb.tif	424620.349565	424620.599381	424621.346133	6.504900e-01	30	none	NaN	NaN
101	1	90	39	bathroom	sun_anryaplzeujmzfkd.tif	424622.117693	424622.367811	424623.114138	6.838484e-01	29	none	NaN	NaN
101	1	91	43	bathroom	sun_apjevzvycyhuqghb.tif	424623.885900	424624.135902	424624.882458	8.339615e-01	33	none	NaN	NaN
101	1	92	34	bathroom	sun_alkosphxlxwjwgjd.tif	424625.653890	424625.903989	424626.650349	6.671692e-01	24	none	NaN	NaN
101	1	93	41	bathroom	sun_aoybiabnpadelefl.tif	424627.421983	424627.672078	424628.418578	8.339615e-01	31	none	NaN	NaN
101	1	94	46	bathroom	sun_apmqjbnwghzuhhzh.tif	424629.190095	424629.440449	424630.186552	6.671692e-01	36	none	NaN	NaN
101	1	95	57	bathroom	sun_axldvoqbuvuggfmq.tif	424630.958248	424631.208522	424631.954719	8.506407e-01	47	none	NaN	NaN
101	1	96	31	bathroom	sun_akiytfaagpdsphgz.tif	424632.726307	424632.976718	424633.722899	7.505654e-01	21	39	424635.321605	0
101	1	97	37	bathroom	sun_amzlamotzwfkwjco.tif	424636.112384	424636.362501	424637.108849	7.172069e-01	27	none	NaN	NaN
101	1	98	29	bathroom	sun_ahqjwnzgolcaoidx.tif	424637.880501	424638.130791	424638.877104	7.672446e-01	19	none	NaN	NaN
101	1	99	52	bathroom	sun_aunuadmjocsddsrl.tif	424639.648600	424639.898716	424640.645102	8.006030e-01	42	none	NaN	NaN
101	1	100	48	bathroom	sun_aqrpegblszgcoujh.tif	424641.416719	424641.666895	424642.413262	6.671692e-01	38	none	NaN	NaN
101	2	1	62	kitchen	labelme_kxvouciolcpqplr.tif	424648.722640	424648.972917	424649.669100	8.339615e-01	52	none	NaN	NaN
101	2	2	82	kitchen	sun_aenotlpyftoioydp.tif	424650.440708	424650.690815	424651.387158	7.005277e-01	72	none	NaN	NaN
101	2	3	80	kitchen	sun_aegoxogugdkwpmpj.tif	424652.158776	424652.409101	424653.105202	8.339615e-01	70	none	NaN	NaN
101	2	4	84	kitchen	sun_aexklacwqwezaorf.tif	424653.876848	424654.126956	424654.823263	7.505654e-01	74	none	NaN	NaN
101	2	5	88	kitchen	sun_agubuxuukhzyzpdp.tif	424655.594900	424655.845163	424656.541299	7.505654e-01	78	none	NaN	NaN
101	2	6	85	kitchen	sun_afuyedyxivkhecmu.tif	424657.312974	424657.563220	424658.259482	8.006030e-01	75	39	424659.129466	0
101	2	7	73	kitchen	sun_abrcnpqqhmjwekyf.tif	424659.931757	424660.181932	424660.878225	7.672446e-01	63	none	NaN	NaN
101	2	8	99	kitchen	sun_akcjzhbbjlbogpdi.tif	424661.649849	424661.900141	424662.596385	7.338861e-01	89	none	NaN	NaN
101	2	9	75	kitchen	sun_acgtpgfybqjmzeyw.tif	424663.367900	424663.618215	424664.314486	7.672446e-01	65	none	NaN	NaN
101	2	10	92	kitchen	sun_ahpczsiumwwocjkv.tif	424665.086052	424665.336066	424666.032625	7.672446e-01	82	none	NaN	NaN
101	2	11	67	kitchen	sun_aarfiyshqohlwkmo.tif	424666.804017	424667.054298	424667.750382	7.505654e-01	57	39	424668.585486	0
101	2	12	89	kitchen	sun_agzzivivdpnawacl.tif	424669.389461	424669.639636	424670.335980	7.172069e-01	79	none	NaN	NaN
101	2	13	87	kitchen	sun_agorklincwxrdtga.tif	424671.107503	424671.357760	424672.054019	8.339615e-01	77	none	NaN	NaN
101	2	14	70	kitchen	sun_abdxkyyxwfskuaqb.tif	424672.825591	424673.075680	424673.772048	7.005277e-01	60	none	NaN	NaN
101	2	15	69	kitchen	sun_abdenxonkemggwsq.tif	424674.543644	424674.793969	424675.490074	6.504900e-01	59	none	NaN	NaN
101	2	16	66	kitchen	sun_aapllqyqlykszopd.tif	424676.261726	424676.512046	424677.208283	7.338861e-01	56	39	424678.721512	1
101	2	17	104	kitchen	sun_auticobqsbwgoppi.tif	424679.514282	424679.764583	424680.460664	8.006030e-01	94	none	NaN	NaN
101	2	18	90	kitchen	sun_ahdycvpopffkzzsu.tif	424681.232422	424681.482218	424682.178954	6.838484e-01	80	none	NaN	NaN
101	2	19	96	kitchen	sun_ajcbwwvdlsvjyzje.tif	424682.950478	424683.200651	424683.896883	7.005277e-01	86	none	NaN	NaN
101	2	20	65	kitchen	sun_aamedkxepzlwuxes.tif	424684.668528	424684.918757	424685.615047	7.005277e-01	55	none	NaN	NaN
101	2	21	106	kitchen	sun_awcpdzzznmweyyhv.tif	424686.386603	424686.636753	424687.332984	7.672446e-01	96	none	NaN	NaN
101	2	22	83	kitchen	sun_aeqdocilnnpuvuhx.tif	424688.104651	424688.354970	424689.051208	8.339615e-01	73	none	NaN	NaN
101	2	23	64	kitchen	sun_aadbddgrdsjugojn.tif	424689.822733	424690.072936	424690.769203	7.839238e-01	54	none	NaN	NaN
101	2	24	61	kitchen	labelme_brsyyvweiuaazfr.tif	424691.540781	424691.791077	424692.487342	7.172069e-01	51	none	NaN	NaN
101	2	25	107	kitchen	sun_axyyrmzcupyhlivc.tif	424693.258855	424693.509197	424694.205222	7.338861e-01	97	none	NaN	NaN
101	2	26	91	kitchen	sun_ahljzhgcdpomplvg.tif	424694.976953	424695.227201	424695.923484	6.671692e-01	81	none	NaN	NaN
101	2	27	94	kitchen	sun_ahywdevtimnqcsln.tif	424696.694983	424696.945370	424697.641545	7.505654e-01	84	none	NaN	NaN
101	2	28	78	kitchen	sun_adgqasybjyktddhj.tif	424698.413053	424698.663270	424699.359440	7.338861e-01	68	none	NaN	NaN
101	2	29	102	kitchen	sun_auaiucuqpdausiva.tif	424700.131105	424700.381226	424701.077661	7.005277e-01	92	none	NaN	NaN
101	2	30	95	kitchen	sun_aixorpehvfykdynp.tif	424701.849169	424702.099523	424702.795574	6.671692e-01	85	none	NaN	NaN
101	2	31	81	kitchen	sun_aehawpgmrlhlvcow.tif	424703.567243	424703.817469	424704.513621	7.005277e-01	71	39	424713.969592	1
101	2	32	74	kitchen	sun_acfmftudsenhrfhy.tif	424714.759673	424715.010073	424715.706193	8.339615e-01	64	39	424716.377339	0
101	2	33	72	kitchen	sun_abpwyqmlzafvklqo.tif	424717.178306	424717.428543	424718.124676	7.172069e-01	62	none	NaN	NaN
101	2	34	109	kitchen	sun_aypmqwcualkenuoe.tif	424718.896374	424719.146715	424719.842900	7.172069e-01	99	39	424720.969524	0
101	2	35	63	kitchen	labelme_rykdqxenmhulbdn.tif	424721.765379	424722.015647	424722.711803	7.839238e-01	53	none	NaN	NaN
101	2	36	105	kitchen	sun_avszsnwsbuqfgzbn.tif	424723.483445	424723.733740	424724.429890	7.005277e-01	95	none	NaN	NaN
101	2	37	98	kitchen	sun_akchetnepxlcxhsu.tif	424725.201505	424725.451605	424726.147867	8.172823e-01	88	none	NaN	NaN
101	2	38	86	kitchen	sun_aggjlwcdjsjcaemh.tif	424726.919583	424727.169847	424727.866036	6.671692e-01	76	none	NaN	NaN
101	2	39	68	kitchen	sun_aaxxjlsuzvqlgylf.tif	424728.637621	424728.887832	424729.584070	7.505654e-01	58	none	NaN	NaN
101	2	40	71	kitchen	sun_abftihopvusyfakt.tif	424730.355677	424730.606000	424731.302218	8.339615e-01	61	none	NaN	NaN
101	2	41	93	kitchen	sun_ahspylgoovwmwvgk.tif	424732.073742	424732.323926	424733.020274	7.672446e-01	83	37	424735.033509	0
101	2	42	100	kitchen	sun_amjjdeyrggfqgmom.tif	424735.826773	424736.076944	424736.773261	8.172823e-01	90	none	NaN	NaN
101	2	43	108	kitchen	sun_aymvwlarqodbwuoc.tif	424737.544869	424737.795100	424738.491449	6.671692e-01	98	none	NaN	NaN
101	2	44	76	kitchen	sun_acwjdupvyjsugpay.tif	424739.262950	424739.513031	424740.209399	7.839238e-01	66	none	NaN	NaN
101	2	45	97	kitchen	sun_ajkqhtgcbgpcwrwn.tif	424740.980985	424741.231341	424741.927359	7.672446e-01	87	none	NaN	NaN
101	2	46	79	kitchen	sun_admlmbcdswaszruo.tif	424742.699068	424742.949226	424743.645455	8.172823e-01	69	none	NaN	NaN
101	2	47	77	kitchen	sun_acxkpeoqbwcxfvip.tif	424744.417112	424744.667186	424745.363558	7.839238e-01	67	none	NaN	NaN
101	2	48	103	kitchen	sun_aunzlwrbjumxhwdj.tif	424746.135190	424746.385304	424747.081575	7.839238e-01	93	none	NaN	NaN
101	2	49	110	kitchen	sun_azmutvzbxypaceni.tif	424747.853255	424748.103459	424748.799829	8.006030e-01	100	none	NaN	NaN
101	2	50	101	kitchen	sun_aqeaevwwwjoqhzvl.tif	424749.571318	424749.821552	424750.517764	7.172069e-01	91	none	NaN	NaN
101	2	51	88	kitchen	sun_agubuxuukhzyzpdp.tif	424751.289371	424751.539687	424752.235794	8.172823e-01	78	none	NaN	NaN
101	2	52	92	kitchen	sun_ahpczsiumwwocjkv.tif	424753.007506	424753.257740	424753.954069	6.838484e-01	82	37	424754.745331	0
101	2	53	66	kitchen	sun_aapllqyqlykszopd.tif	424755.542833	424755.792920	424756.489242	8.006030e-01	56	none	NaN	NaN
101	2	54	102	kitchen	sun_auaiucuqpdausiva.tif	424757.260905	424757.511111	424758.207392	7.839238e-01	92	39	424759.169454	0
101	2	55	78	kitchen	sun_adgqasybjyktddhj.tif	424759.963075	424760.213406	424760.909493	8.006030e-01	68	none	NaN	NaN
101	2	56	68	kitchen	sun_aaxxjlsuzvqlgylf.tif	424761.681174	424761.931505	424762.627609	6.838484e-01	58	none	NaN	NaN
101	2	57	62	kitchen	labelme_kxvouciolcpqplr.tif	424763.399212	424763.649428	424764.345688	6.671692e-01	52	none	NaN	NaN
101	2	58	100	kitchen	sun_amjjdeyrggfqgmom.tif	424765.117283	424765.367489	424766.063726	6.838484e-01	90	none	NaN	NaN
101	2	59	74	kitchen	sun_acfmftudsenhrfhy.tif	424766.835343	424767.085636	424767.781710	7.172069e-01	64	none	NaN	NaN
101	2	60	109	kitchen	sun_aypmqwcualkenuoe.tif	424768.553417	424768.803577	424769.499993	8.506407e-01	99	none	NaN	NaN
101	2	61	105	kitchen	sun_avszsnwsbuqfgzbn.tif	424770.271467	424770.521651	424771.217902	7.505654e-01	95	none	NaN	NaN
101	2	62	67	kitchen	sun_aarfiyshqohlwkmo.tif	424771.989543	424772.239857	424772.936016	6.838484e-01	57	none	NaN	NaN
101	2	63	83	kitchen	sun_aeqdocilnnpuvuhx.tif	424773.707601	424773.957898	424774.654017	6.671692e-01	73	none	NaN	NaN
101	2	64	90	kitchen	sun_ahdycvpopffkzzsu.tif	424775.425674	424775.675853	424776.372164	6.838484e-01	80	none	NaN	NaN
101	2	65	75	kitchen	sun_acgtpgfybqjmzeyw.tif	424777.143736	424777.393971	424778.090103	7.839238e-01	65	none	NaN	NaN
101	2	66	101	kitchen	sun_aqeaevwwwjoqhzvl.tif	424778.861805	424779.111995	424779.808323	7.672446e-01	91	none	NaN	NaN
101	2	67	82	kitchen	sun_aenotlpyftoioydp.tif	424780.579852	424780.829959	424781.526274	6.838484e-01	72	37	424782.753423	0
101	2	68	97	kitchen	sun_ajkqhtgcbgpcwrwn.tif	424783.548932	424783.799213	424784.495481	7.005277e-01	87	none	NaN	NaN
101	2	69	77	kitchen	sun_acxkpeoqbwcxfvip.tif	424785.266999	424785.517318	424786.213519	7.338861e-01	67	none	NaN	NaN
101	2	70	63	kitchen	labelme_rykdqxenmhulbdn.tif	424786.985069	424787.235340	424787.931668	7.338861e-01	53	none	NaN	NaN
101	2	71	87	kitchen	sun_agorklincwxrdtga.tif	424788.703132	424788.953294	424789.649560	8.339615e-01	77	none	NaN	NaN
101	2	72	84	kitchen	sun_aexklacwqwezaorf.tif	424790.421188	424790.671406	424791.367667	7.672446e-01	74	none	NaN	NaN
101	2	73	94	kitchen	sun_ahywdevtimnqcsln.tif	424792.139273	424792.389510	424793.085658	7.005277e-01	84	39	424794.001446	0
101	2	74	65	kitchen	sun_aamedkxepzlwuxes.tif	424794.791404	424795.041531	424795.737956	8.506407e-01	55	none	NaN	NaN
101	2	75	96	kitchen	sun_ajcbwwvdlsvjyzje.tif	424796.509866	424796.759108	424797.456397	7.505654e-01	86	37	424798.897316	0
101	2	76	106	kitchen	sun_awcpdzzznmweyyhv.tif	424799.695404	424799.945205	424800.641869	8.006030e-01	96	none	NaN	NaN
101	2	77	80	kitchen	sun_aegoxogugdkwpmpj.tif	424801.413454	424801.663779	424802.359867	8.339615e-01	70	39	424803.745443	0
101	2	78	95	kitchen	sun_aixorpehvfykdynp.tif	424804.549332	424804.799612	424805.495739	7.338861e-01	85	none	NaN	NaN
101	2	79	81	kitchen	sun_aehawpgmrlhlvcow.tif	424806.267397	424806.517681	424807.213939	8.172823e-01	71	none	NaN	NaN
101	2	80	76	kitchen	sun_acwjdupvyjsugpay.tif	424807.985478	424808.235824	424808.932098	6.504900e-01	66	37	424810.137313	0
101	2	81	61	kitchen	labelme_brsyyvweiuaazfr.tif	424810.937878	424811.188167	424811.884247	8.006030e-01	51	none	NaN	NaN
101	2	82	98	kitchen	sun_akchetnepxlcxhsu.tif	424812.655946	424812.906051	424813.602421	8.006030e-01	88	none	NaN	NaN
101	2	83	91	kitchen	sun_ahljzhgcdpomplvg.tif	424814.374005	424814.624223	424815.320500	6.504900e-01	81	none	NaN	NaN
101	2	84	72	kitchen	sun_abpwyqmlzafvklqo.tif	424816.092061	424816.342408	424817.038628	6.504900e-01	62	none	NaN	NaN
101	2	85	107	kitchen	sun_axyyrmzcupyhlivc.tif	424817.810140	424818.060399	424818.756648	7.505654e-01	97	37	424819.913466	0
101	2	86	104	kitchen	sun_auticobqsbwgoppi.tif	424820.712828	424820.962046	424821.659336	6.838484e-01	94	none	NaN	NaN
101	2	87	108	kitchen	sun_aymvwlarqodbwuoc.tif	424822.430546	424822.680719	424823.376950	7.172069e-01	98	none	NaN	NaN
101	2	88	93	kitchen	sun_ahspylgoovwmwvgk.tif	424824.148611	424824.398925	424825.095029	8.172823e-01	83	none	NaN	NaN
101	2	89	86	kitchen	sun_aggjlwcdjsjcaemh.tif	424825.883344	424826.133160	424826.829882	8.172823e-01	76	none	NaN	NaN
101	2	90	103	kitchen	sun_aunzlwrbjumxhwdj.tif	424827.601465	424827.851665	424828.547987	6.504900e-01	93	none	NaN	NaN
101	2	91	73	kitchen	sun_abrcnpqqhmjwekyf.tif	424829.319482	424829.569743	424830.265859	7.338861e-01	63	none	NaN	NaN
101	2	92	89	kitchen	sun_agzzivivdpnawacl.tif	424831.037552	424831.287818	424831.984086	7.672446e-01	79	none	NaN	NaN
101	2	93	71	kitchen	sun_abftihopvusyfakt.tif	424832.755604	424833.005700	424833.701977	6.671692e-01	61	none	NaN	NaN
101	2	94	85	kitchen	sun_afuyedyxivkhecmu.tif	424834.473663	424834.723853	424835.420153	8.506407e-01	75	none	NaN	NaN
101	2	95	64	kitchen	sun_aadbddgrdsjugojn.tif	424836.191741	424836.441972	424837.138190	6.671692e-01	54	none	NaN	NaN
101	2	96	110	kitchen	sun_azmutvzbxypaceni.tif	424837.909815	424838.160050	424838.856397	8.506407e-01	100	none	NaN	NaN
101	2	97	70	kitchen	sun_abdxkyyxwfskuaqb.tif	424839.627857	424839.878191	424840.574414	8.339615e-01	60	none	NaN	NaN
101	2	98	99	kitchen	sun_akcjzhbbjlbogpdi.tif	424841.345935	424841.596102	424842.292481	7.839238e-01	89	none	NaN	NaN
101	2	99	79	kitchen	sun_admlmbcdswaszruo.tif	424843.064009	424843.314322	424844.010456	8.172823e-01	69	none	NaN	NaN
101	2	100	69	kitchen	sun_abdenxonkemggwsq.tif	424844.782065	424845.032343	424845.728535	7.172069e-01	59	none	NaN	NaN
101	3	1	27	bathroom	sun_ahcvzmoyaycdoftf.tif	424853.722656	424853.972944	424854.802456	8.172823e-01	17	none	NaN	NaN
101	3	2	21	bathroom	sun_aggnnqpdorgxpvce.tif	424855.574182	424855.824596	424856.654104	6.838484e-01	11	37	424857.721520	0
101	3	3	19	bathroom	sun_aclfzgynxzxlbepz.tif	424858.509864	424858.760091	424859.589863	8.339615e-01	9	none	NaN	NaN
101	3	4	46	bathroom	sun_apmqjbnwghzuhhzh.tif	424860.361387	424860.611706	424861.441277	7.005277e-01	36	none	NaN	NaN
101	3	5	17	bathroom	sun_acegryoqftbzowsg.tif	424862.212911	424862.463120	424863.292833	8.506407e-01	7	none	NaN	NaN
101	3	6	34	bathroom	sun_alkosphxlxwjwgjd.tif	424864.064389	424864.331254	424865.144200	7.338861e-01	24	none	NaN	NaN
101	3	7	18	bathroom	sun_acgyywnybuveqsro.tif	424865.915904	424866.166104	424866.995916	7.005277e-01	8	none	NaN	NaN
101	3	8	38	bathroom	sun_anhioqovhscjqqwb.tif	424867.767408	424868.017751	424868.847393	6.838484e-01	28	none	NaN	NaN
101	3	9	50	bathroom	sun_aspsyogrekjtfozg.tif	424869.618913	424869.869254	424870.698858	8.339615e-01	40	none	NaN	NaN
101	3	10	29	bathroom	sun_ahqjwnzgolcaoidx.tif	424871.470458	424871.720767	424872.550409	7.172069e-01	19	39	424873.585366	0
101	3	11	53	bathroom	sun_ausgutylgojavyoq.tif	424874.389462	424874.639713	424875.469353	6.671692e-01	43	none	NaN	NaN
101	3	12	59	bathroom	sun_axyrejkiiaqiurjk.tif	424876.242252	424876.507823	424877.322159	7.839238e-01	49	none	NaN	NaN
101	3	13	24	bathroom	sun_agrwbmhcpmfuwmsg.tif	424878.109159	424878.359244	424879.189033	8.006030e-01	14	none	NaN	NaN
101	3	14	58	bathroom	sun_axxbkopsgyouuebh.tif	424879.960653	424880.210964	424881.040639	7.505654e-01	48	none	NaN	NaN
101	3	15	31	bathroom	sun_akiytfaagpdsphgz.tif	424881.812151	424882.062403	424882.892042	6.838484e-01	21	none	NaN	NaN
101	3	16	13	bathroom	sun_aavhrsfjbserjtht.tif	424883.663665	424883.913870	424884.743543	7.505654e-01	3	none	NaN	NaN
101	3	17	54	bathroom	sun_auzqhkafidnkrwmo.tif	424885.515162	424885.765291	424886.594986	8.339615e-01	44	39	424888.017391	0
101	3	18	37	bathroom	sun_amzlamotzwfkwjco.tif	424888.817866	424889.068151	424889.897683	7.338861e-01	27	none	NaN	NaN
101	3	19	49	bathroom	sun_asfwthctfqerjvxr.tif	424890.669353	424890.919520	424891.749251	7.172069e-01	39	none	NaN	NaN
101	3	20	45	bathroom	sun_apkxzenqapsujocq.tif	424892.520866	424892.771139	424893.600725	6.838484e-01	35	none	NaN	NaN
101	3	21	39	bathroom	sun_anryaplzeujmzfkd.tif	424894.372358	424894.622571	424895.452278	6.504900e-01	29	none	NaN	NaN
101	3	22	51	bathroom	sun_atstyziqcmkahyxk.tif	424896.223865	424896.474212	424897.303710	7.672446e-01	41	none	NaN	NaN
101	3	23	30	bathroom	sun_ajlawzvmubibwbpy.tif	424898.075405	424898.325701	424899.155419	6.838484e-01	20	none	NaN	NaN
101	3	24	33	bathroom	sun_aljolscmmzydegqp.tif	424899.926900	424900.177023	424901.006910	7.839238e-01	23	none	NaN	NaN
101	3	25	20	bathroom	sun_afcoljnjfoxjtgja.tif	424901.778376	424902.028708	424902.858288	6.671692e-01	10	none	NaN	NaN
101	3	26	60	bathroom	sun_azqyogdvyhahyram.tif	424903.629904	424903.880075	424904.709816	8.172823e-01	50	none	NaN	NaN
101	3	27	22	bathroom	sun_agguqiubmwhqqunb.tif	424905.481404	424905.731754	424906.561301	7.672446e-01	12	37	424908.809349	0
101	3	28	55	bathroom	sun_avhrdrntsqrjzccq.tif	424909.601424	424909.851652	424910.681406	7.172069e-01	45	none	NaN	NaN
101	3	29	52	bathroom	sun_aunuadmjocsddsrl.tif	424911.452933	424911.703168	424912.532733	7.005277e-01	42	none	NaN	NaN
101	3	30	14	bathroom	sun_abapwbhyhkfixyex.tif	424913.304430	424913.554708	424914.384346	8.006030e-01	4	none	NaN	NaN
101	3	31	35	bathroom	sun_alotolagknyrgtsk.tif	424915.155946	424915.406191	424916.235864	7.839238e-01	25	37	424918.345428	0
101	3	32	11	bathroom	labelme_sfxiulhjbhlyiyt.tif	424919.142515	424919.392604	424920.222436	7.338861e-01	1	none	NaN	NaN
101	3	33	48	bathroom	sun_aqrpegblszgcoujh.tif	424920.994028	424921.244335	424922.074045	8.339615e-01	38	none	NaN	NaN
101	3	34	28	bathroom	sun_ahijqszoswveeyji.tif	424922.845527	424923.095744	424923.925474	7.505654e-01	18	37	424925.393402	0
101	3	35	57	bathroom	sun_axldvoqbuvuggfmq.tif	424926.181576	424926.431692	424927.261538	8.006030e-01	47	none	NaN	NaN
101	3	36	26	bathroom	sun_ahaulkltgpkeeemi.tif	424928.033065	424928.283331	424929.112926	7.338861e-01	16	none	NaN	NaN
101	3	37	23	bathroom	sun_aghyqhbptboemmoq.tif	424929.884562	424930.134905	424930.964423	8.172823e-01	13	none	NaN	NaN
101	3	38	47	bathroom	sun_apynckhmoftszqoq.tif	424931.736083	424931.986381	424932.815920	7.505654e-01	37	none	NaN	NaN
101	3	39	42	bathroom	sun_apeeialkgkuxddgh.tif	424933.587578	424933.837784	424934.667405	7.672446e-01	32	37	424936.089288	0
101	3	40	25	bathroom	sun_agyqfjcfkdcydepw.tif	424936.890279	424937.140375	424937.970233	6.838484e-01	15	none	NaN	NaN
101	3	41	32	bathroom	sun_aleqenyvunhactkl.tif	424938.741778	424938.991979	424939.821757	7.505654e-01	22	37	424941.249241	0
101	3	42	12	bathroom	sun_aapitsgbtktqubfy.tif	424942.044492	424942.294759	424943.124497	8.006030e-01	2	none	NaN	NaN
101	3	43	36	bathroom	sun_ambriybtogmepttm.tif	424943.895968	424944.146273	424944.975984	7.005277e-01	26	none	NaN	NaN
101	3	44	44	bathroom	sun_apkruvsevgegsdwp.tif	424945.747479	424945.997727	424946.827567	8.506407e-01	34	none	NaN	NaN
101	3	45	56	bathroom	sun_awnqiikzaispgmwo.tif	424947.598998	424947.849227	424948.678952	6.671692e-01	46	none	NaN	NaN
101	3	46	15	bathroom	sun_abjtwfukuwddzted.tif	424949.450488	424949.700683	424950.530354	8.506407e-01	5	none	NaN	NaN
101	3	47	16	bathroom	sun_acduarbnmmoglmiv.tif	424951.301999	424951.552290	424952.381906	7.005277e-01	6	none	NaN	NaN
101	3	48	43	bathroom	sun_apjevzvycyhuqghb.tif	424953.153495	424953.403718	424954.233457	7.839238e-01	33	none	NaN	NaN
101	3	49	40	bathroom	sun_aofnryafpsjimzsb.tif	424955.005039	424955.255319	424956.084848	6.671692e-01	30	none	NaN	NaN
101	3	50	41	bathroom	sun_aoybiabnpadelefl.tif	424956.856504	424957.106797	424957.936342	6.671692e-01	31	none	NaN	NaN
101	3	51	27	bathroom	sun_ahcvzmoyaycdoftf.tif	424958.708024	424958.958321	424959.787999	8.339615e-01	17	39	424960.905252	0
101	3	52	36	bathroom	sun_ambriybtogmepttm.tif	424961.693775	424961.943862	424962.773733	8.339615e-01	26	none	NaN	NaN
101	3	53	37	bathroom	sun_amzlamotzwfkwjco.tif	424963.545266	424963.795585	424964.625263	8.006030e-01	27	none	NaN	NaN
101	3	54	14	bathroom	sun_abapwbhyhkfixyex.tif	424965.396788	424965.647017	424966.476764	8.006030e-01	4	none	NaN	NaN
101	3	55	40	bathroom	sun_aofnryafpsjimzsb.tif	424967.248324	424967.498569	424968.328301	7.172069e-01	30	none	NaN	NaN
101	3	56	41	bathroom	sun_aoybiabnpadelefl.tif	424969.099791	424969.349906	424970.179774	6.671692e-01	31	none	NaN	NaN
101	3	57	39	bathroom	sun_anryaplzeujmzfkd.tif	424970.951288	424971.201526	424972.031224	6.838484e-01	29	none	NaN	NaN
101	3	58	43	bathroom	sun_apjevzvycyhuqghb.tif	424972.802810	424973.053092	424973.882749	7.005277e-01	33	none	NaN	NaN
101	3	59	60	bathroom	sun_azqyogdvyhahyram.tif	424974.654292	424974.904625	424975.734154	7.005277e-01	50	37	424979.513037	0
101	3	60	38	bathroom	sun_anhioqovhscjqqwb.tif	424980.308899	424980.558995	424981.388805	7.172069e-01	28	none	NaN	NaN
101	3	61	12	bathroom	sun_aapitsgbtktqubfy.tif	424982.160408	424982.410566	424983.240396	7.338861e-01	2	none	NaN	NaN
101	3	62	11	bathroom	labelme_sfxiulhjbhlyiyt.tif	424984.011925	424984.262268	424985.091846	7.672446e-01	1	none	NaN	NaN
101	3	63	30	bathroom	sun_ajlawzvmubibwbpy.tif	424985.863431	424986.113689	424986.943230	8.172823e-01	20	none	NaN	NaN
101	3	64	28	bathroom	sun_ahijqszoswveeyji.tif	424987.714926	424987.965251	424988.794910	6.504900e-01	18	none	NaN	NaN
101	3	65	48	bathroom	sun_aqrpegblszgcoujh.tif	424989.566425	424989.816752	424990.646246	7.505654e-01	38	none	NaN	NaN
101	3	66	25	bathroom	sun_agyqfjcfkdcydepw.tif	424991.417937	424991.668275	424992.497917	7.505654e-01	15	none	NaN	NaN
101	3	67	23	bathroom	sun_aghyqhbptboemmoq.tif	424993.269440	424993.519672	424994.349425	7.005277e-01	13	none	NaN	NaN
101	3	68	16	bathroom	sun_acduarbnmmoglmiv.tif	424995.120946	424995.371150	424996.200853	7.338861e-01	6	none	NaN	NaN
101	3	69	58	bathroom	sun_axxbkopsgyouuebh.tif	424996.972450	424997.222746	424998.052392	8.339615e-01	48	none	NaN	NaN
101	3	70	21	bathroom	sun_aggnnqpdorgxpvce.tif	424998.823967	424999.074222	424999.903923	8.172823e-01	11	none	NaN	NaN
101	3	71	26	bathroom	sun_ahaulkltgpkeeemi.tif	425000.675465	425000.925810	425001.755262	8.006030e-01	16	none	NaN	NaN
101	3	72	34	bathroom	sun_alkosphxlxwjwgjd.tif	425002.526972	425002.777266	425003.606891	6.504900e-01	24	none	NaN	NaN
101	3	73	52	bathroom	sun_aunuadmjocsddsrl.tif	425004.378468	425004.628700	425005.458331	6.671692e-01	42	none	NaN	NaN
101	3	74	15	bathroom	sun_abjtwfukuwddzted.tif	425006.229984	425006.480310	425007.309851	7.672446e-01	5	none	NaN	NaN
101	3	75	13	bathroom	sun_aavhrsfjbserjtht.tif	425008.081470	425008.331605	425009.161381	7.672446e-01	3	none	NaN	NaN
101	3	76	46	bathroom	sun_apmqjbnwghzuhhzh.tif	425009.932991	425010.183231	425011.012923	8.339615e-01	36	none	NaN	NaN
101	3	77	59	bathroom	sun_axyrejkiiaqiurjk.tif	425011.784486	425012.034780	425012.864393	7.839238e-01	49	none	NaN	NaN
101	3	78	42	bathroom	sun_apeeialkgkuxddgh.tif	425013.636010	425013.886296	425014.715917	7.839238e-01	32	none	NaN	NaN
101	3	79	24	bathroom	sun_agrwbmhcpmfuwmsg.tif	425015.487498	425015.737593	425016.567450	8.006030e-01	14	none	NaN	NaN
101	3	80	35	bathroom	sun_alotolagknyrgtsk.tif	425017.339016	425017.589289	425018.418920	7.172069e-01	25	39	425019.881153	0
101	3	81	57	bathroom	sun_axldvoqbuvuggfmq.tif	425020.675069	425020.925282	425021.754944	8.172823e-01	47	none	NaN	NaN
101	3	82	32	bathroom	sun_aleqenyvunhactkl.tif	425022.526561	425022.776768	425023.606357	7.338861e-01	22	none	NaN	NaN
101	3	83	55	bathroom	sun_avhrdrntsqrjzccq.tif	425024.378087	425024.628386	425025.458110	7.839238e-01	45	39	425027.497140	0
101	3	84	22	bathroom	sun_agguqiubmwhqqunb.tif	425028.297923	425028.548239	425029.377827	6.504900e-01	12	none	NaN	NaN
101	3	85	45	bathroom	sun_apkxzenqapsujocq.tif	425030.149422	425030.399664	425031.229436	7.338861e-01	35	none	NaN	NaN
101	3	86	20	bathroom	sun_afcoljnjfoxjtgja.tif	425032.000929	425032.251245	425033.080797	7.839238e-01	10	39	425034.489343	0
101	3	87	19	bathroom	sun_aclfzgynxzxlbepz.tif	425035.286924	425035.537064	425036.366898	7.505654e-01	9	none	NaN	NaN
101	3	88	31	bathroom	sun_akiytfaagpdsphgz.tif	425037.138441	425037.388793	425038.218428	7.672446e-01	21	none	NaN	NaN
101	3	89	47	bathroom	sun_apynckhmoftszqoq.tif	425038.989960	425039.240225	425040.069895	8.506407e-01	37	none	NaN	NaN
101	3	90	17	bathroom	sun_acegryoqftbzowsg.tif	425040.841500	425041.091704	425041.921409	6.838484e-01	7	none	NaN	NaN
101	3	91	33	bathroom	sun_aljolscmmzydegqp.tif	425042.692970	425042.943168	425043.772858	7.172069e-01	23	none	NaN	NaN
101	3	92	51	bathroom	sun_atstyziqcmkahyxk.tif	425044.544454	425044.794771	425045.624380	6.671692e-01	41	39	425046.800962	0
101	3	93	54	bathroom	sun_auzqhkafidnkrwmo.tif	425047.596948	425047.847291	425048.676932	8.172823e-01	44	none	NaN	NaN
101	3	94	18	bathroom	sun_acgyywnybuveqsro.tif	425049.448506	425049.698746	425050.528398	7.005277e-01	8	none	NaN	NaN
101	3	95	50	bathroom	sun_aspsyogrekjtfozg.tif	425051.299951	425051.550084	425052.379918	7.172069e-01	40	none	NaN	NaN
101	3	96	53	bathroom	sun_ausgutylgojavyoq.tif	425053.151456	425053.401579	425054.231465	7.672446e-01	43	none	NaN	NaN
101	3	97	56	bathroom	sun_awnqiikzaispgmwo.tif	425055.002979	425055.253194	425056.082922	8.172823e-01	46	39	425057.729188	0
101	3	98	49	bathroom	sun_asfwthctfqerjvxr.tif	425058.522490	425058.772779	425059.602385	7.672446e-01	39	none	NaN	NaN
101	3	99	44	bathroom	sun_apkruvsevgegsdwp.tif	425060.374007	425060.624260	425061.453992	6.504900e-01	34	none	NaN	NaN
101	3	100	29	bathroom	sun_ahqjwnzgolcaoidx.tif	425062.225506	425062.475820	425063.305324	8.339615e-01	19	none	NaN	NaN
101	4	1	68	kitchen	sun_aaxxjlsuzvqlgylf.tif	425157.452924	425157.703120	425158.399409	7.172069e-01	58	none	NaN	NaN
101	4	2	77	kitchen	sun_acxkpeoqbwcxfvip.tif	425159.171006	425159.421252	425160.117422	7.005277e-01	67	none	NaN	NaN
101	4	3	79	kitchen	sun_admlmbcdswaszruo.tif	425160.889051	425161.139262	425161.835500	8.172823e-01	69	none	NaN	NaN
101	4	4	86	kitchen	sun_aggjlwcdjsjcaemh.tif	425162.607120	425162.857212	425163.553495	7.005277e-01	76	none	NaN	NaN
101	4	5	94	kitchen	sun_ahywdevtimnqcsln.tif	425164.325179	425164.575401	425165.271654	7.005277e-01	84	none	NaN	NaN
101	4	6	95	kitchen	sun_aixorpehvfykdynp.tif	425166.043240	425166.293360	425166.989788	6.671692e-01	85	none	NaN	NaN
101	4	7	75	kitchen	sun_acgtpgfybqjmzeyw.tif	425167.761331	425168.011458	425168.707740	7.505654e-01	65	none	NaN	NaN
101	4	8	88	kitchen	sun_agubuxuukhzyzpdp.tif	425169.479402	425169.729595	425170.425964	6.671692e-01	78	none	NaN	NaN
101	4	9	85	kitchen	sun_afuyedyxivkhecmu.tif	425171.197435	425171.447545	425172.144019	7.839238e-01	75	37	425173.728906	1
101	4	10	104	kitchen	sun_auticobqsbwgoppi.tif	425174.533486	425174.783673	425175.479998	7.672446e-01	94	37	425188.193164	0
101	4	11	72	kitchen	sun_abpwyqmlzafvklqo.tif	425188.995235	425189.245480	425189.941758	7.839238e-01	62	none	NaN	NaN
101	4	12	66	kitchen	sun_aapllqyqlykszopd.tif	425190.713305	425190.963587	425191.659863	7.172069e-01	56	none	NaN	NaN
101	4	13	69	kitchen	sun_abdenxonkemggwsq.tif	425192.431357	425192.681685	425193.377872	8.172823e-01	59	37	425196.097172	0
101	4	14	108	kitchen	sun_aymvwlarqodbwuoc.tif	425196.901644	425197.151944	425197.848178	6.838484e-01	98	none	NaN	NaN
101	4	15	105	kitchen	sun_avszsnwsbuqfgzbn.tif	425198.619706	425198.870051	425199.566191	7.505654e-01	95	none	NaN	NaN
101	4	16	78	kitchen	sun_adgqasybjyktddhj.tif	425200.337789	425200.587991	425201.284186	8.006030e-01	68	none	NaN	NaN
101	4	17	101	kitchen	sun_aqeaevwwwjoqhzvl.tif	425202.055853	425202.306141	425203.002405	8.506407e-01	91	37	425207.321168	0
101	4	18	99	kitchen	sun_akcjzhbbjlbogpdi.tif	425208.110813	425208.360928	425209.057361	6.838484e-01	89	none	NaN	NaN
101	4	19	90	kitchen	sun_ahdycvpopffkzzsu.tif	425209.828843	425210.079189	425210.775312	7.505654e-01	80	none	NaN	NaN
101	4	20	70	kitchen	sun_abdxkyyxwfskuaqb.tif	425211.546904	425211.797264	425212.493289	8.339615e-01	60	none	NaN	NaN
101	4	21	81	kitchen	sun_aehawpgmrlhlvcow.tif	425213.264974	425213.515292	425214.211451	8.006030e-01	71	37	425219.921036	0
101	4	22	106	kitchen	sun_awcpdzzznmweyyhv.tif	425220.721035	425220.971240	425221.667453	8.006030e-01	96	none	NaN	NaN
101	4	23	93	kitchen	sun_ahspylgoovwmwvgk.tif	425222.439108	425222.689425	425223.385622	6.504900e-01	83	none	NaN	NaN
101	4	24	97	kitchen	sun_ajkqhtgcbgpcwrwn.tif	425224.157162	425224.407344	425225.103653	7.172069e-01	87	none	NaN	NaN
101	4	25	91	kitchen	sun_ahljzhgcdpomplvg.tif	425225.875216	425226.125474	425226.821721	7.338861e-01	81	none	NaN	NaN
101	4	26	96	kitchen	sun_ajcbwwvdlsvjyzje.tif	425227.593294	425227.843535	425228.539864	8.172823e-01	86	none	NaN	NaN
101	4	27	62	kitchen	labelme_kxvouciolcpqplr.tif	425229.311338	425229.561631	425230.257861	7.839238e-01	52	none	NaN	NaN
101	4	28	109	kitchen	sun_aypmqwcualkenuoe.tif	425231.029422	425231.279567	425231.975992	7.672446e-01	99	37	425233.257177	1
101	4	29	76	kitchen	sun_acwjdupvyjsugpay.tif	425234.048529	425234.298836	425234.995008	8.006030e-01	66	none	NaN	NaN
101	4	30	87	kitchen	sun_agorklincwxrdtga.tif	425235.766609	425236.016889	425236.713090	8.506407e-01	77	none	NaN	NaN
101	4	31	102	kitchen	sun_auaiucuqpdausiva.tif	425237.484653	425237.734850	425238.431179	8.339615e-01	92	none	NaN	NaN
101	4	32	110	kitchen	sun_azmutvzbxypaceni.tif	425239.202721	425239.453003	425240.149153	7.672446e-01	100	37	425241.393188	0
101	4	33	98	kitchen	sun_akchetnepxlcxhsu.tif	425242.188479	425242.438804	425243.134912	6.671692e-01	88	none	NaN	NaN
101	4	34	100	kitchen	sun_amjjdeyrggfqgmom.tif	425243.906546	425244.156868	425244.853129	7.338861e-01	90	39	425245.969184	0
101	4	35	107	kitchen	sun_axyyrmzcupyhlivc.tif	425246.758860	425247.008953	425247.705231	7.672446e-01	97	none	NaN	NaN
101	4	36	65	kitchen	sun_aamedkxepzlwuxes.tif	425248.476912	425248.727124	425249.423298	8.172823e-01	55	none	NaN	NaN
101	4	37	64	kitchen	sun_aadbddgrdsjugojn.tif	425250.194984	425250.445342	425251.141429	7.338861e-01	54	37	425252.385073	1
101	4	38	89	kitchen	sun_agzzivivdpnawacl.tif	425253.180751	425253.430859	425254.127112	8.339615e-01	79	none	NaN	NaN
101	4	39	103	kitchen	sun_aunzlwrbjumxhwdj.tif	425254.898810	425255.149047	425255.845343	6.838484e-01	93	none	NaN	NaN
101	4	40	71	kitchen	sun_abftihopvusyfakt.tif	425256.616884	425256.868108	425257.563469	7.505654e-01	61	none	NaN	NaN
101	4	41	83	kitchen	sun_aeqdocilnnpuvuhx.tif	425258.334941	425258.585232	425259.281440	6.504900e-01	73	none	NaN	NaN
101	4	42	73	kitchen	sun_abrcnpqqhmjwekyf.tif	425260.053020	425260.303135	425260.999652	6.504900e-01	63	none	NaN	NaN
101	4	43	84	kitchen	sun_aexklacwqwezaorf.tif	425261.771065	425262.021132	425262.717651	7.172069e-01	74	none	NaN	NaN
101	4	44	92	kitchen	sun_ahpczsiumwwocjkv.tif	425263.489157	425263.739423	425264.435735	7.672446e-01	82	none	NaN	NaN
101	4	45	82	kitchen	sun_aenotlpyftoioydp.tif	425265.207194	425265.457512	425266.153575	8.172823e-01	72	39	425267.360986	1
101	4	46	80	kitchen	sun_aegoxogugdkwpmpj.tif	425268.159606	425268.409719	425269.106106	6.838484e-01	70	none	NaN	NaN
101	4	47	61	kitchen	labelme_brsyyvweiuaazfr.tif	425269.877667	425270.127800	425270.824250	7.172069e-01	51	none	NaN	NaN
101	4	48	63	kitchen	labelme_rykdqxenmhulbdn.tif	425271.595723	425271.846111	425272.542206	8.172823e-01	53	37	425273.849114	1
101	4	49	67	kitchen	sun_aarfiyshqohlwkmo.tif	425274.648207	425274.898518	425275.594667	7.005277e-01	57	none	NaN	NaN
101	4	50	74	kitchen	sun_acfmftudsenhrfhy.tif	425276.366280	425276.616353	425277.312857	7.338861e-01	64	none	NaN	NaN
101	4	51	91	kitchen	sun_ahljzhgcdpomplvg.tif	425278.084328	425278.334542	425279.030836	7.839238e-01	81	none	NaN	NaN
101	4	52	85	kitchen	sun_afuyedyxivkhecmu.tif	425279.802393	425280.052689	425280.748771	8.339615e-01	75	none	NaN	NaN
101	4	53	78	kitchen	sun_adgqasybjyktddhj.tif	425281.520454	425281.770262	425282.466824	6.671692e-01	68	none	NaN	NaN
101	4	54	92	kitchen	sun_ahpczsiumwwocjkv.tif	425283.238526	425283.488816	425284.184984	6.671692e-01	82	none	NaN	NaN
101	4	55	87	kitchen	sun_agorklincwxrdtga.tif	425284.956588	425285.206786	425285.903203	8.172823e-01	77	none	NaN	NaN
101	4	56	102	kitchen	sun_auaiucuqpdausiva.tif	425286.674661	425286.924880	425287.621228	7.338861e-01	92	none	NaN	NaN
101	4	57	66	kitchen	sun_aapllqyqlykszopd.tif	425288.392720	425288.643055	425289.339132	8.006030e-01	56	37	425291.105141	0
101	4	58	106	kitchen	sun_awcpdzzznmweyyhv.tif	425291.895585	425292.145640	425292.842121	7.005277e-01	96	none	NaN	NaN
101	4	59	64	kitchen	sun_aadbddgrdsjugojn.tif	425293.613625	425293.863689	425294.560027	7.172069e-01	54	none	NaN	NaN
101	4	60	80	kitchen	sun_aegoxogugdkwpmpj.tif	425295.331705	425295.582036	425296.278094	6.671692e-01	70	none	NaN	NaN
101	4	61	73	kitchen	sun_abrcnpqqhmjwekyf.tif	425297.049753	425297.300088	425297.996285	7.672446e-01	63	none	NaN	NaN
101	4	62	105	kitchen	sun_avszsnwsbuqfgzbn.tif	425298.767838	425299.018036	425299.714311	7.338861e-01	95	none	NaN	NaN
101	4	63	62	kitchen	labelme_kxvouciolcpqplr.tif	425300.485879	425300.736004	425301.432313	7.172069e-01	52	none	NaN	NaN
101	4	64	89	kitchen	sun_agzzivivdpnawacl.tif	425302.203950	425302.454047	425303.150494	6.671692e-01	79	none	NaN	NaN
101	4	65	103	kitchen	sun_aunzlwrbjumxhwdj.tif	425303.922002	425304.172290	425304.868420	8.339615e-01	93	39	425306.032989	0
101	4	66	108	kitchen	sun_aymvwlarqodbwuoc.tif	425306.824361	425307.074161	425307.770747	8.339615e-01	98	none	NaN	NaN
101	4	67	72	kitchen	sun_abpwyqmlzafvklqo.tif	425308.542430	425308.792659	425309.488898	7.505654e-01	62	none	NaN	NaN
101	4	68	70	kitchen	sun_abdxkyyxwfskuaqb.tif	425310.260516	425310.510762	425311.207075	7.005277e-01	60	none	NaN	NaN
101	4	69	68	kitchen	sun_aaxxjlsuzvqlgylf.tif	425311.978555	425312.228757	425312.924950	6.838484e-01	58	37	425314.193157	1
101	4	70	110	kitchen	sun_azmutvzbxypaceni.tif	425314.997700	425315.247794	425315.944175	7.505654e-01	100	none	NaN	NaN
101	4	71	107	kitchen	sun_axyyrmzcupyhlivc.tif	425316.715740	425316.965994	425317.662154	7.005277e-01	97	none	NaN	NaN
101	4	72	97	kitchen	sun_ajkqhtgcbgpcwrwn.tif	425318.433794	425318.684010	425319.380168	7.338861e-01	87	none	NaN	NaN
101	4	73	65	kitchen	sun_aamedkxepzlwuxes.tif	425320.151868	425320.402176	425321.098352	7.672446e-01	55	39	425322.184945	1
101	4	74	99	kitchen	sun_akcjzhbbjlbogpdi.tif	425322.987531	425323.237845	425323.933991	6.838484e-01	89	none	NaN	NaN
101	4	75	94	kitchen	sun_ahywdevtimnqcsln.tif	425324.705571	425324.955766	425325.652058	7.839238e-01	84	none	NaN	NaN
101	4	76	83	kitchen	sun_aeqdocilnnpuvuhx.tif	425326.423625	425326.673798	425327.370089	8.339615e-01	73	none	NaN	NaN
101	4	77	86	kitchen	sun_aggjlwcdjsjcaemh.tif	425328.141697	425328.391895	425329.088074	6.671692e-01	76	none	NaN	NaN
101	4	78	95	kitchen	sun_aixorpehvfykdynp.tif	425329.859747	425330.110014	425330.806230	7.672446e-01	85	none	NaN	NaN
101	4	79	74	kitchen	sun_acfmftudsenhrfhy.tif	425331.577817	425331.828105	425332.524369	7.505654e-01	64	none	NaN	NaN
101	4	80	77	kitchen	sun_acxkpeoqbwcxfvip.tif	425333.295900	425333.546003	425334.242425	7.672446e-01	67	none	NaN	NaN
101	4	81	79	kitchen	sun_admlmbcdswaszruo.tif	425335.013949	425335.264186	425335.960415	8.006030e-01	69	none	NaN	NaN
101	4	82	84	kitchen	sun_aexklacwqwezaorf.tif	425336.732023	425336.982336	425337.678526	8.506407e-01	74	none	NaN	NaN
101	4	83	88	kitchen	sun_agubuxuukhzyzpdp.tif	425338.450082	425338.700300	425339.396515	8.006030e-01	78	none	NaN	NaN
101	4	84	109	kitchen	sun_aypmqwcualkenuoe.tif	425340.168191	425340.418447	425341.114591	8.506407e-01	99	none	NaN	NaN
101	4	85	63	kitchen	labelme_rykdqxenmhulbdn.tif	425341.886209	425342.136465	425342.832757	6.504900e-01	53	none	NaN	NaN
101	4	86	101	kitchen	sun_aqeaevwwwjoqhzvl.tif	425343.604280	425343.854611	425344.550740	8.339615e-01	91	none	NaN	NaN
101	4	87	93	kitchen	sun_ahspylgoovwmwvgk.tif	425345.322323	425345.572538	425346.268742	7.839238e-01	83	none	NaN	NaN
101	4	88	81	kitchen	sun_aehawpgmrlhlvcow.tif	425347.040405	425347.290521	425347.986924	7.338861e-01	71	none	NaN	NaN
101	4	89	90	kitchen	sun_ahdycvpopffkzzsu.tif	425348.758451	425349.008793	425349.704988	8.339615e-01	80	none	NaN	NaN
101	4	90	98	kitchen	sun_akchetnepxlcxhsu.tif	425350.476529	425350.726829	425351.422945	7.839238e-01	88	none	NaN	NaN
101	4	91	69	kitchen	sun_abdenxonkemggwsq.tif	425352.194578	425352.444792	425353.141004	6.838484e-01	59	none	NaN	NaN
101	4	92	96	kitchen	sun_ajcbwwvdlsvjyzje.tif	425353.912608	425354.162808	425354.859103	6.838484e-01	86	none	NaN	NaN
101	4	93	75	kitchen	sun_acgtpgfybqjmzeyw.tif	425355.630730	425355.880837	425356.577283	8.172823e-01	65	none	NaN	NaN
101	4	94	76	kitchen	sun_acwjdupvyjsugpay.tif	425357.348806	425357.599125	425358.295203	7.172069e-01	66	none	NaN	NaN
101	4	95	104	kitchen	sun_auticobqsbwgoppi.tif	425359.066837	425359.317135	425360.013218	8.006030e-01	94	none	NaN	NaN
101	4	96	82	kitchen	sun_aenotlpyftoioydp.tif	425360.784912	425361.035021	425361.731493	7.839238e-01	72	none	NaN	NaN
101	4	97	61	kitchen	labelme_brsyyvweiuaazfr.tif	425362.502965	425362.753287	425363.449506	7.005277e-01	51	none	NaN	NaN
101	4	98	71	kitchen	sun_abftihopvusyfakt.tif	425364.221028	425364.471256	425365.167612	6.504900e-01	61	none	NaN	NaN
101	4	99	67	kitchen	sun_aarfiyshqohlwkmo.tif	425365.939097	425366.189202	425366.885559	7.005277e-01	57	none	NaN	NaN
101	4	100	100	kitchen	sun_amjjdeyrggfqgmom.tif	425367.657155	425367.907345	425368.603603	7.505654e-01	90	none	NaN	NaN
101	5	1	47	bathroom	sun_apynckhmoftszqoq.tif	425447.171818	425447.422019	425448.134930	7.672446e-01	37	none	NaN	NaN
101	5	2	55	bathroom	sun_avhrdrntsqrjzccq.tif	425448.906563	425449.156883	425449.869813	6.504900e-01	45	37	425450.848932	0
101	5	3	45	bathroom	sun_apkxzenqapsujocq.tif	425451.642104	425451.892378	425452.605280	7.338861e-01	35	none	NaN	NaN
101	5	4	41	bathroom	sun_aoybiabnpadelefl.tif	425453.376792	425453.627128	425454.339837	7.172069e-01	31	none	NaN	NaN
101	5	5	21	bathroom	sun_aggnnqpdorgxpvce.tif	425455.111575	425455.361739	425456.074626	7.172069e-01	11	none	NaN	NaN
101	5	6	36	bathroom	sun_ambriybtogmepttm.tif	425456.846334	425457.096662	425457.809452	8.506407e-01	26	none	NaN	NaN
101	5	7	24	bathroom	sun_agrwbmhcpmfuwmsg.tif	425458.581069	425458.831299	425459.544321	6.838484e-01	14	none	NaN	NaN
101	5	8	37	bathroom	sun_amzlamotzwfkwjco.tif	425460.315862	425460.566133	425461.279095	7.005277e-01	27	none	NaN	NaN
101	5	9	20	bathroom	sun_afcoljnjfoxjtgja.tif	425462.050551	425462.300908	425463.013616	7.172069e-01	10	none	NaN	NaN
101	5	10	40	bathroom	sun_aofnryafpsjimzsb.tif	425463.785321	425464.035605	425464.748387	7.505654e-01	30	none	NaN	NaN
101	5	11	42	bathroom	sun_apeeialkgkuxddgh.tif	425465.520041	425465.770282	425466.483174	8.172823e-01	32	none	NaN	NaN
101	5	12	13	bathroom	sun_aavhrsfjbserjtht.tif	425467.254803	425467.505133	425468.218030	8.172823e-01	3	none	NaN	NaN
101	5	13	11	bathroom	labelme_sfxiulhjbhlyiyt.tif	425468.989538	425469.239713	425469.952684	7.338861e-01	1	none	NaN	NaN
101	5	14	34	bathroom	sun_alkosphxlxwjwgjd.tif	425470.724283	425470.974491	425471.687473	6.504900e-01	24	37	425472.960850	1
101	5	15	51	bathroom	sun_atstyziqcmkahyxk.tif	425473.760094	425474.010339	425474.723193	7.338861e-01	41	37	425476.065082	0
101	5	16	32	bathroom	sun_aleqenyvunhactkl.tif	425476.862619	425477.112964	425477.825799	7.839238e-01	22	none	NaN	NaN
101	5	17	26	bathroom	sun_ahaulkltgpkeeemi.tif	425478.597343	425478.847682	425479.560559	8.006030e-01	16	none	NaN	NaN
101	5	18	33	bathroom	sun_aljolscmmzydegqp.tif	425480.332114	425480.582146	425481.295211	7.005277e-01	23	37	425482.928988	1
101	5	19	28	bathroom	sun_ahijqszoswveeyji.tif	425483.718175	425483.968537	425484.681305	7.005277e-01	18	none	NaN	NaN
101	5	20	19	bathroom	sun_aclfzgynxzxlbepz.tif	425485.452929	425485.702729	425486.416067	7.672446e-01	9	none	NaN	NaN
101	5	21	35	bathroom	sun_alotolagknyrgtsk.tif	425487.187677	425487.437790	425488.150926	7.172069e-01	25	none	NaN	NaN
101	5	22	58	bathroom	sun_axxbkopsgyouuebh.tif	425488.922407	425489.172628	425489.885486	8.506407e-01	48	none	NaN	NaN
101	5	23	27	bathroom	sun_ahcvzmoyaycdoftf.tif	425490.657157	425490.907471	425491.620320	7.172069e-01	17	none	NaN	NaN
101	5	24	23	bathroom	sun_aghyqhbptboemmoq.tif	425492.391899	425492.642234	425493.354969	8.172823e-01	13	none	NaN	NaN
101	5	25	56	bathroom	sun_awnqiikzaispgmwo.tif	425494.126678	425494.376901	425495.089909	8.172823e-01	46	none	NaN	NaN
101	5	26	15	bathroom	sun_abjtwfukuwddzted.tif	425495.861404	425496.111711	425496.824545	7.505654e-01	5	none	NaN	NaN
101	5	27	48	bathroom	sun_aqrpegblszgcoujh.tif	425497.596114	425497.846397	425498.559323	8.506407e-01	38	none	NaN	NaN
101	5	28	18	bathroom	sun_acgyywnybuveqsro.tif	425499.330873	425499.581228	425500.293921	8.172823e-01	8	none	NaN	NaN
101	5	29	60	bathroom	sun_azqyogdvyhahyram.tif	425501.065604	425501.315762	425502.028846	8.006030e-01	50	none	NaN	NaN
101	5	30	46	bathroom	sun_apmqjbnwghzuhhzh.tif	425502.800371	425503.050628	425503.763543	6.671692e-01	36	none	NaN	NaN
101	5	31	30	bathroom	sun_ajlawzvmubibwbpy.tif	425504.535132	425504.785385	425505.498282	6.671692e-01	20	none	NaN	NaN
101	5	32	31	bathroom	sun_akiytfaagpdsphgz.tif	425506.269883	425506.520076	425507.232935	8.339615e-01	21	none	NaN	NaN
101	5	33	16	bathroom	sun_acduarbnmmoglmiv.tif	425508.004602	425508.254902	425508.967718	6.671692e-01	6	none	NaN	NaN
101	5	34	29	bathroom	sun_ahqjwnzgolcaoidx.tif	425509.739338	425509.989560	425510.702511	7.005277e-01	19	39	425511.825001	1
101	5	35	49	bathroom	sun_asfwthctfqerjvxr.tif	425512.625014	425512.875269	425513.588112	7.672446e-01	39	none	NaN	NaN
101	5	36	43	bathroom	sun_apjevzvycyhuqghb.tif	425514.359761	425514.609967	425515.322805	8.006030e-01	33	none	NaN	NaN
101	5	37	22	bathroom	sun_agguqiubmwhqqunb.tif	425516.094498	425516.344716	425517.057718	7.005277e-01	12	none	NaN	NaN
101	5	38	17	bathroom	sun_acegryoqftbzowsg.tif	425517.829237	425518.079552	425518.792326	6.671692e-01	7	none	NaN	NaN
101	5	39	44	bathroom	sun_apkruvsevgegsdwp.tif	425519.563977	425519.814246	425520.527097	7.672446e-01	34	37	425521.520906	0
101	5	40	52	bathroom	sun_aunuadmjocsddsrl.tif	425522.316224	425522.566510	425523.279487	8.006030e-01	42	none	NaN	NaN
101	5	41	59	bathroom	sun_axyrejkiiaqiurjk.tif	425524.050959	425524.301081	425525.014136	8.006030e-01	49	none	NaN	NaN
101	5	42	53	bathroom	sun_ausgutylgojavyoq.tif	425525.785717	425526.035869	425526.748851	7.172069e-01	43	none	NaN	NaN
101	5	43	12	bathroom	sun_aapitsgbtktqubfy.tif	425527.520914	425527.787315	425528.483972	6.504900e-01	2	none	NaN	NaN
101	5	44	25	bathroom	sun_agyqfjcfkdcydepw.tif	425529.255203	425529.505465	425530.218391	7.672446e-01	15	none	NaN	NaN
101	5	45	14	bathroom	sun_abapwbhyhkfixyex.tif	425530.989945	425531.240098	425531.953124	7.505654e-01	4	none	NaN	NaN
101	5	46	54	bathroom	sun_auzqhkafidnkrwmo.tif	425532.724708	425532.974913	425533.687937	8.006030e-01	44	none	NaN	NaN
101	5	47	39	bathroom	sun_anryaplzeujmzfkd.tif	425534.459425	425534.709784	425535.422544	7.839238e-01	29	none	NaN	NaN
101	5	48	38	bathroom	sun_anhioqovhscjqqwb.tif	425536.194179	425536.444509	425537.157295	6.838484e-01	28	none	NaN	NaN
101	5	49	57	bathroom	sun_axldvoqbuvuggfmq.tif	425537.928926	425538.179151	425538.892063	7.839238e-01	47	none	NaN	NaN
101	5	50	50	bathroom	sun_aspsyogrekjtfozg.tif	425539.663655	425539.913992	425540.626907	8.006030e-01	40	none	NaN	NaN
101	5	51	50	bathroom	sun_aspsyogrekjtfozg.tif	425541.398406	425541.648669	425542.361634	7.672446e-01	40	none	NaN	NaN
101	5	52	58	bathroom	sun_axxbkopsgyouuebh.tif	425543.133144	425543.383389	425544.096365	8.339615e-01	48	none	NaN	NaN
101	5	53	13	bathroom	sun_aavhrsfjbserjtht.tif	425544.867896	425545.118049	425545.831157	8.339615e-01	3	none	NaN	NaN
101	5	54	28	bathroom	sun_ahijqszoswveeyji.tif	425546.602649	425546.852754	425547.565738	7.505654e-01	18	none	NaN	NaN
101	5	55	31	bathroom	sun_akiytfaagpdsphgz.tif	425548.337375	425548.587520	425549.300543	7.505654e-01	21	none	NaN	NaN
101	5	56	14	bathroom	sun_abapwbhyhkfixyex.tif	425550.072131	425550.322274	425551.035198	8.339615e-01	4	none	NaN	NaN
101	5	57	26	bathroom	sun_ahaulkltgpkeeemi.tif	425551.806886	425552.057125	425552.769992	7.338861e-01	16	none	NaN	NaN
101	5	58	45	bathroom	sun_apkxzenqapsujocq.tif	425553.541610	425553.791855	425554.504821	8.172823e-01	35	none	NaN	NaN
101	5	59	52	bathroom	sun_aunuadmjocsddsrl.tif	425555.276350	425555.526678	425556.239530	7.839238e-01	42	none	NaN	NaN
101	5	60	15	bathroom	sun_abjtwfukuwddzted.tif	425557.011111	425557.261379	425557.974313	8.506407e-01	5	none	NaN	NaN
101	5	61	42	bathroom	sun_apeeialkgkuxddgh.tif	425558.745826	425558.996125	425559.708988	8.339615e-01	32	none	NaN	NaN
101	5	62	32	bathroom	sun_aleqenyvunhactkl.tif	425560.480583	425560.730905	425561.443665	8.339615e-01	22	none	NaN	NaN
101	5	63	34	bathroom	sun_alkosphxlxwjwgjd.tif	425562.215345	425562.465644	425563.178546	7.672446e-01	24	none	NaN	NaN
101	5	64	16	bathroom	sun_acduarbnmmoglmiv.tif	425563.950081	425564.200226	425564.913164	8.339615e-01	6	none	NaN	NaN
101	5	65	44	bathroom	sun_apkruvsevgegsdwp.tif	425565.684809	425565.935048	425566.647941	7.672446e-01	34	none	NaN	NaN
101	5	66	36	bathroom	sun_ambriybtogmepttm.tif	425567.419567	425567.669794	425568.382795	7.505654e-01	26	none	NaN	NaN
101	5	67	27	bathroom	sun_ahcvzmoyaycdoftf.tif	425569.154313	425569.404638	425570.117533	6.838484e-01	17	none	NaN	NaN
101	5	68	33	bathroom	sun_aljolscmmzydegqp.tif	425570.889059	425571.139411	425571.852231	8.172823e-01	23	39	425575.352865	1
101	5	69	49	bathroom	sun_asfwthctfqerjvxr.tif	425576.143316	425576.393482	425577.106443	7.005277e-01	39	none	NaN	NaN
101	5	70	46	bathroom	sun_apmqjbnwghzuhhzh.tif	425577.878069	425578.128426	425578.841120	6.671692e-01	36	39	425580.304958	1
101	5	71	60	bathroom	sun_azqyogdvyhahyram.tif	425581.097399	425581.347564	425582.060550	6.838484e-01	50	37	425583.128868	1
101	5	72	56	bathroom	sun_awnqiikzaispgmwo.tif	425583.932984	425584.183109	425584.896214	8.339615e-01	46	none	NaN	NaN
101	5	73	53	bathroom	sun_ausgutylgojavyoq.tif	425585.667720	425585.918050	425586.630787	7.839238e-01	43	none	NaN	NaN
101	5	74	12	bathroom	sun_aapitsgbtktqubfy.tif	425587.402478	425587.652767	425588.365729	7.839238e-01	2	none	NaN	NaN
101	5	75	38	bathroom	sun_anhioqovhscjqqwb.tif	425589.137233	425589.387446	425590.100397	6.838484e-01	28	none	NaN	NaN
101	5	76	47	bathroom	sun_apynckhmoftszqoq.tif	425590.871967	425591.122178	425591.835216	7.005277e-01	37	none	NaN	NaN
101	5	77	55	bathroom	sun_avhrdrntsqrjzccq.tif	425592.606693	425592.856902	425593.569752	6.838484e-01	45	none	NaN	NaN
101	5	78	29	bathroom	sun_ahqjwnzgolcaoidx.tif	425594.341461	425594.591750	425595.304667	8.339615e-01	19	none	NaN	NaN
101	5	79	20	bathroom	sun_afcoljnjfoxjtgja.tif	425596.076180	425596.326325	425597.039364	7.839238e-01	10	39	425600.456890	0
101	5	80	59	bathroom	sun_axyrejkiiaqiurjk.tif	425601.247062	425601.497427	425602.210183	6.504900e-01	49	none	NaN	NaN
101	5	81	39	bathroom	sun_anryaplzeujmzfkd.tif	425602.981809	425603.231994	425603.944852	7.172069e-01	29	none	NaN	NaN
101	5	82	18	bathroom	sun_acgyywnybuveqsro.tif	425604.716553	425604.966756	425605.679712	7.338861e-01	8	none	NaN	NaN
101	5	83	21	bathroom	sun_aggnnqpdorgxpvce.tif	425606.451284	425606.701507	425607.414445	7.005277e-01	11	none	NaN	NaN
101	5	84	37	bathroom	sun_amzlamotzwfkwjco.tif	425608.186049	425608.436293	425609.149289	7.172069e-01	27	39	425611.232986	1
101	5	85	11	bathroom	labelme_sfxiulhjbhlyiyt.tif	425612.022474	425612.272783	425612.985737	7.338861e-01	1	37	425614.976734	1
101	5	86	35	bathroom	sun_alotolagknyrgtsk.tif	425615.775552	425616.025352	425616.738672	7.505654e-01	25	37	425620.488725	1
101	5	87	30	bathroom	sun_ajlawzvmubibwbpy.tif	425621.280046	425621.530333	425622.243106	7.672446e-01	20	none	NaN	NaN
101	5	88	57	bathroom	sun_axldvoqbuvuggfmq.tif	425623.014764	425623.264859	425623.977839	6.838484e-01	47	none	NaN	NaN
101	5	89	22	bathroom	sun_agguqiubmwhqqunb.tif	425624.749520	425624.999811	425625.712701	6.671692e-01	12	none	NaN	NaN
101	5	90	19	bathroom	sun_aclfzgynxzxlbepz.tif	425626.484248	425626.734600	425627.447360	7.338861e-01	9	none	NaN	NaN
101	5	91	25	bathroom	sun_agyqfjcfkdcydepw.tif	425628.218996	425628.469254	425629.182233	6.671692e-01	15	37	425630.392737	1
101	5	92	43	bathroom	sun_apjevzvycyhuqghb.tif	425631.188086	425631.438348	425632.151152	6.671692e-01	33	none	NaN	NaN
101	5	93	54	bathroom	sun_auzqhkafidnkrwmo.tif	425632.922815	425633.173062	425633.885894	7.839238e-01	44	none	NaN	NaN
101	5	94	51	bathroom	sun_atstyziqcmkahyxk.tif	425634.657574	425634.907877	425635.620752	7.338861e-01	41	none	NaN	NaN
101	5	95	24	bathroom	sun_agrwbmhcpmfuwmsg.tif	425636.392308	425636.642083	425637.355372	6.838484e-01	14	none	NaN	NaN
101	5	96	23	bathroom	sun_aghyqhbptboemmoq.tif	425638.127050	425638.377373	425639.090145	7.005277e-01	13	39	425640.416857	1
101	5	97	40	bathroom	sun_aofnryafpsjimzsb.tif	425641.212882	425641.463210	425642.176122	6.504900e-01	30	none	NaN	NaN
101	5	98	41	bathroom	sun_aoybiabnpadelefl.tif	425642.947642	425643.197731	425643.910892	7.505654e-01	31	none	NaN	NaN
101	5	99	48	bathroom	sun_aqrpegblszgcoujh.tif	425644.682389	425644.932657	425645.645603	8.006030e-01	38	none	NaN	NaN
101	5	100	17	bathroom	sun_acegryoqftbzowsg.tif	425646.417124	425646.667436	425647.380383	8.172823e-01	7	none	NaN	NaN
101	6	1	64	kitchen	sun_aadbddgrdsjugojn.tif	425706.582646	425706.832815	425707.579178	8.506407e-01	54	none	NaN	NaN
101	6	2	81	kitchen	sun_aehawpgmrlhlvcow.tif	425708.350817	425708.601039	425709.347249	7.005277e-01	71	none	NaN	NaN
101	6	3	108	kitchen	sun_aymvwlarqodbwuoc.tif	425710.118913	425710.369193	425711.115510	6.838484e-01	98	none	NaN	NaN
101	6	4	65	kitchen	sun_aamedkxepzlwuxes.tif	425711.887005	425712.137266	425712.883514	8.172823e-01	55	none	NaN	NaN
101	6	5	87	kitchen	sun_agorklincwxrdtga.tif	425713.655215	425713.905215	425714.651661	8.172823e-01	77	none	NaN	NaN
101	6	6	90	kitchen	sun_ahdycvpopffkzzsu.tif	425715.423241	425715.673318	425716.419702	7.505654e-01	80	none	NaN	NaN
101	6	7	99	kitchen	sun_akcjzhbbjlbogpdi.tif	425717.191335	425717.441587	425718.187849	7.672446e-01	89	37	425719.600713	0
101	6	8	93	kitchen	sun_ahspylgoovwmwvgk.tif	425720.393945	425720.644166	425721.390557	7.005277e-01	83	none	NaN	NaN
101	6	9	62	kitchen	labelme_kxvouciolcpqplr.tif	425722.162052	425722.412150	425723.158645	6.671692e-01	52	none	NaN	NaN
101	6	10	69	kitchen	sun_abdenxonkemggwsq.tif	425723.930150	425724.180355	425724.926650	6.838484e-01	59	none	NaN	NaN
101	6	11	98	kitchen	sun_akchetnepxlcxhsu.tif	425725.698247	425725.948329	425726.694841	7.839238e-01	88	none	NaN	NaN
101	6	12	106	kitchen	sun_awcpdzzznmweyyhv.tif	425727.466362	425727.716679	425728.462790	8.006030e-01	96	none	NaN	NaN
101	6	13	109	kitchen	sun_aypmqwcualkenuoe.tif	425729.234448	425729.484601	425730.230918	7.005277e-01	99	none	NaN	NaN
101	6	14	100	kitchen	sun_amjjdeyrggfqgmom.tif	425731.002567	425731.252794	425731.999130	7.172069e-01	90	none	NaN	NaN
101	6	15	89	kitchen	sun_agzzivivdpnawacl.tif	425732.770657	425733.020988	425733.767185	8.339615e-01	79	none	NaN	NaN
101	6	16	103	kitchen	sun_aunzlwrbjumxhwdj.tif	425734.538784	425734.788998	425735.535235	7.005277e-01	93	none	NaN	NaN
101	6	17	78	kitchen	sun_adgqasybjyktddhj.tif	425736.306871	425736.557150	425737.303439	8.339615e-01	68	none	NaN	NaN
101	6	18	68	kitchen	sun_aaxxjlsuzvqlgylf.tif	425738.074988	425738.325238	425739.071585	8.339615e-01	58	none	NaN	NaN
101	6	19	71	kitchen	sun_abftihopvusyfakt.tif	425739.843069	425740.093231	425740.839549	7.005277e-01	61	none	NaN	NaN
101	6	20	105	kitchen	sun_avszsnwsbuqfgzbn.tif	425741.611200	425741.861327	425742.607670	6.504900e-01	95	37	425743.864630	0
101	6	21	73	kitchen	sun_abrcnpqqhmjwekyf.tif	425744.663673	425744.913993	425745.660202	7.505654e-01	63	none	NaN	NaN
101	6	22	67	kitchen	sun_aarfiyshqohlwkmo.tif	425746.431763	425746.682026	425747.428288	7.672446e-01	57	none	NaN	NaN
101	6	23	86	kitchen	sun_aggjlwcdjsjcaemh.tif	425748.199857	425748.450109	425749.196343	8.006030e-01	76	none	NaN	NaN
101	6	24	74	kitchen	sun_acfmftudsenhrfhy.tif	425749.967987	425750.218069	425750.964418	6.671692e-01	64	none	NaN	NaN
101	6	25	66	kitchen	sun_aapllqyqlykszopd.tif	425751.736091	425751.986304	425752.732636	7.172069e-01	56	none	NaN	NaN
101	6	26	95	kitchen	sun_aixorpehvfykdynp.tif	425753.504171	425753.754511	425754.500648	7.672446e-01	85	none	NaN	NaN
101	6	27	70	kitchen	sun_abdxkyyxwfskuaqb.tif	425755.272276	425755.522384	425756.268858	8.339615e-01	60	39	425757.440493	1
101	6	28	75	kitchen	sun_acgtpgfybqjmzeyw.tif	425758.241380	425758.491723	425759.238001	8.339615e-01	65	none	NaN	NaN
101	6	29	94	kitchen	sun_ahywdevtimnqcsln.tif	425760.009472	425760.259636	425761.006004	7.338861e-01	84	none	NaN	NaN
101	6	30	85	kitchen	sun_afuyedyxivkhecmu.tif	425761.777589	425762.027937	425762.774031	7.839238e-01	75	none	NaN	NaN
101	6	31	107	kitchen	sun_axyyrmzcupyhlivc.tif	425763.545691	425763.795785	425764.542196	8.172823e-01	97	none	NaN	NaN
101	6	32	91	kitchen	sun_ahljzhgcdpomplvg.tif	425765.313811	425765.563906	425766.310326	7.172069e-01	81	none	NaN	NaN
101	6	33	96	kitchen	sun_ajcbwwvdlsvjyzje.tif	425767.081893	425767.332240	425768.078409	7.839238e-01	86	39	425769.400443	1
101	6	34	82	kitchen	sun_aenotlpyftoioydp.tif	425770.201045	425770.451406	425771.197491	7.505654e-01	72	39	425772.904595	0
101	6	35	102	kitchen	sun_auaiucuqpdausiva.tif	425773.703941	425773.954340	425774.700469	8.006030e-01	92	37	425775.520699	1
101	6	36	72	kitchen	sun_abpwyqmlzafvklqo.tif	425776.322744	425776.572892	425777.319243	7.338861e-01	62	none	NaN	NaN
101	6	37	84	kitchen	sun_aexklacwqwezaorf.tif	425778.090826	425778.341011	425779.087383	7.672446e-01	74	39	425779.912766	1
101	6	38	101	kitchen	sun_aqeaevwwwjoqhzvl.tif	425780.709653	425780.959889	425781.706263	7.672446e-01	91	none	NaN	NaN
101	6	39	110	kitchen	sun_azmutvzbxypaceni.tif	425782.477741	425782.727872	425783.474238	6.504900e-01	100	none	NaN	NaN
101	6	40	83	kitchen	sun_aeqdocilnnpuvuhx.tif	425784.245853	425784.496003	425785.242480	8.006030e-01	73	none	NaN	NaN
101	6	41	77	kitchen	sun_acxkpeoqbwcxfvip.tif	425786.013951	425786.264154	425787.010452	8.172823e-01	67	none	NaN	NaN
101	6	42	63	kitchen	labelme_rykdqxenmhulbdn.tif	425787.782056	425788.032189	425788.778540	6.504900e-01	53	none	NaN	NaN
101	6	43	80	kitchen	sun_aegoxogugdkwpmpj.tif	425789.550160	425789.800250	425790.546618	7.172069e-01	70	none	NaN	NaN
101	6	44	79	kitchen	sun_admlmbcdswaszruo.tif	425791.318275	425791.568470	425792.314876	7.839238e-01	69	37	425793.880829	1
101	6	45	61	kitchen	labelme_brsyyvweiuaazfr.tif	425794.671005	425794.921200	425795.667575	7.005277e-01	51	none	NaN	NaN
101	6	46	97	kitchen	sun_ajkqhtgcbgpcwrwn.tif	425796.439107	425796.689194	425797.435543	7.172069e-01	87	none	NaN	NaN
101	6	47	88	kitchen	sun_agubuxuukhzyzpdp.tif	425798.207198	425798.457474	425799.203817	7.338861e-01	78	none	NaN	NaN
101	6	48	104	kitchen	sun_auticobqsbwgoppi.tif	425799.975312	425800.225427	425800.971770	7.839238e-01	94	none	NaN	NaN
101	6	49	76	kitchen	sun_acwjdupvyjsugpay.tif	425801.743403	425801.993558	425802.739919	7.672446e-01	66	none	NaN	NaN
101	6	50	92	kitchen	sun_ahpczsiumwwocjkv.tif	425803.511545	425803.761819	425804.507996	7.172069e-01	82	none	NaN	NaN
101	6	51	105	kitchen	sun_avszsnwsbuqfgzbn.tif	425805.279559	425805.529891	425806.276073	8.339615e-01	95	none	NaN	NaN
101	6	52	92	kitchen	sun_ahpczsiumwwocjkv.tif	425807.047736	425807.297835	425808.044135	8.339615e-01	82	none	NaN	NaN
101	6	53	83	kitchen	sun_aeqdocilnnpuvuhx.tif	425808.815824	425809.066047	425809.812445	7.338861e-01	73	none	NaN	NaN
101	6	54	94	kitchen	sun_ahywdevtimnqcsln.tif	425810.583960	425810.834016	425811.580403	8.172823e-01	84	none	NaN	NaN
101	6	55	101	kitchen	sun_aqeaevwwwjoqhzvl.tif	425812.352040	425812.602173	425813.348490	7.005277e-01	91	none	NaN	NaN
101	6	56	81	kitchen	sun_aehawpgmrlhlvcow.tif	425814.120148	425814.370224	425815.116622	6.838484e-01	71	none	NaN	NaN
101	6	57	87	kitchen	sun_agorklincwxrdtga.tif	425815.888240	425816.138462	425816.884822	8.006030e-01	77	none	NaN	NaN
101	6	58	89	kitchen	sun_agzzivivdpnawacl.tif	425817.656357	425817.906555	425818.652967	7.172069e-01	79	none	NaN	NaN
101	6	59	74	kitchen	sun_acfmftudsenhrfhy.tif	425819.424445	425819.674629	425820.420926	8.006030e-01	64	none	NaN	NaN
101	6	60	67	kitchen	sun_aarfiyshqohlwkmo.tif	425821.192534	425821.442634	425822.189058	6.838484e-01	57	none	NaN	NaN
101	6	61	63	kitchen	labelme_rykdqxenmhulbdn.tif	425822.960669	425823.211021	425823.957252	6.671692e-01	53	none	NaN	NaN
101	6	62	84	kitchen	sun_aexklacwqwezaorf.tif	425824.728758	425824.978992	425825.725193	6.504900e-01	74	none	NaN	NaN
101	6	63	103	kitchen	sun_aunzlwrbjumxhwdj.tif	425826.496878	425826.747188	425827.493300	6.838484e-01	93	37	425829.040658	1
101	6	64	91	kitchen	sun_ahljzhgcdpomplvg.tif	425829.832864	425830.083097	425830.829396	7.005277e-01	81	none	NaN	NaN
101	6	65	62	kitchen	labelme_kxvouciolcpqplr.tif	425831.601022	425831.851358	425832.597438	7.505654e-01	52	39	425834.096781	1
101	6	66	106	kitchen	sun_awcpdzzznmweyyhv.tif	425834.887044	425835.137206	425835.883579	6.671692e-01	96	none	NaN	NaN
101	6	67	68	kitchen	sun_aaxxjlsuzvqlgylf.tif	425836.655125	425836.905359	425837.651534	7.505654e-01	58	none	NaN	NaN
101	6	68	65	kitchen	sun_aamedkxepzlwuxes.tif	425838.423231	425838.673476	425839.419797	7.338861e-01	55	none	NaN	NaN
101	6	69	96	kitchen	sun_ajcbwwvdlsvjyzje.tif	425840.191313	425840.441527	425841.187809	7.005277e-01	86	none	NaN	NaN
101	6	70	110	kitchen	sun_azmutvzbxypaceni.tif	425841.959443	425842.209564	425842.956028	8.506407e-01	100	none	NaN	NaN
101	6	71	77	kitchen	sun_acxkpeoqbwcxfvip.tif	425843.727526	425843.977627	425844.724148	8.506407e-01	67	39	425846.288800	1
101	6	72	86	kitchen	sun_aggjlwcdjsjcaemh.tif	425847.080284	425847.330609	425848.076759	7.839238e-01	76	none	NaN	NaN
101	6	73	64	kitchen	sun_aadbddgrdsjugojn.tif	425848.848371	425849.098678	425849.844945	6.671692e-01	54	none	NaN	NaN
101	6	74	76	kitchen	sun_acwjdupvyjsugpay.tif	425850.616491	425850.866559	425851.613053	8.172823e-01	66	none	NaN	NaN
101	6	75	104	kitchen	sun_auticobqsbwgoppi.tif	425852.384606	425852.634945	425853.381124	8.506407e-01	94	none	NaN	NaN
101	6	76	95	kitchen	sun_aixorpehvfykdynp.tif	425854.152681	425854.402772	425855.149277	7.505654e-01	85	none	NaN	NaN
101	6	77	109	kitchen	sun_aypmqwcualkenuoe.tif	425855.920783	425856.171044	425856.917382	8.339615e-01	99	none	NaN	NaN
101	6	78	108	kitchen	sun_aymvwlarqodbwuoc.tif	425857.688896	425857.939084	425858.685362	6.838484e-01	98	37	425860.184589	1
101	6	79	100	kitchen	sun_amjjdeyrggfqgmom.tif	425860.974893	425861.225118	425861.971501	7.672446e-01	90	none	NaN	NaN
101	6	80	99	kitchen	sun_akcjzhbbjlbogpdi.tif	425862.743010	425862.993104	425863.739632	6.671692e-01	89	none	NaN	NaN
101	6	81	70	kitchen	sun_abdxkyyxwfskuaqb.tif	425864.511067	425864.761325	425865.507483	7.172069e-01	60	none	NaN	NaN
101	6	82	75	kitchen	sun_acgtpgfybqjmzeyw.tif	425866.279213	425866.529304	425867.275691	6.671692e-01	65	39	425871.616582	0
101	6	83	90	kitchen	sun_ahdycvpopffkzzsu.tif	425872.417522	425872.667749	425873.413964	6.838484e-01	80	none	NaN	NaN
101	6	84	97	kitchen	sun_ajkqhtgcbgpcwrwn.tif	425874.185646	425874.435748	425875.182220	6.838484e-01	87	none	NaN	NaN
101	6	85	88	kitchen	sun_agubuxuukhzyzpdp.tif	425875.953733	425876.204006	425876.950296	6.504900e-01	78	none	NaN	NaN
101	6	86	80	kitchen	sun_aegoxogugdkwpmpj.tif	425877.721868	425877.972201	425878.718339	8.006030e-01	70	none	NaN	NaN
101	6	87	82	kitchen	sun_aenotlpyftoioydp.tif	425879.489947	425879.740110	425880.486352	7.338861e-01	72	none	NaN	NaN
101	6	88	102	kitchen	sun_auaiucuqpdausiva.tif	425881.258061	425881.508255	425882.254656	8.006030e-01	92	39	425890.536690	1
101	6	89	66	kitchen	sun_aapllqyqlykszopd.tif	425891.332915	425891.583184	425892.329470	7.839238e-01	56	none	NaN	NaN
101	6	90	78	kitchen	sun_adgqasybjyktddhj.tif	425893.101014	425893.351399	425894.097414	8.172823e-01	68	none	NaN	NaN
101	6	91	61	kitchen	labelme_brsyyvweiuaazfr.tif	425894.869122	425895.119466	425895.865642	8.172823e-01	51	none	NaN	NaN
101	6	92	79	kitchen	sun_admlmbcdswaszruo.tif	425896.637224	425896.887578	425897.633873	8.339615e-01	69	39	425899.160722	0
101	6	93	73	kitchen	sun_abrcnpqqhmjwekyf.tif	425899.956588	425900.206923	425900.953193	7.672446e-01	63	none	NaN	NaN
101	6	94	69	kitchen	sun_abdenxonkemggwsq.tif	425901.724726	425901.975002	425902.721289	6.671692e-01	59	none	NaN	NaN
101	6	95	98	kitchen	sun_akchetnepxlcxhsu.tif	425903.492807	425903.742997	425904.489409	7.672446e-01	88	none	NaN	NaN
101	6	96	107	kitchen	sun_axyyrmzcupyhlivc.tif	425905.260907	425905.511154	425906.257478	7.839238e-01	97	none	NaN	NaN
101	6	97	71	kitchen	sun_abftihopvusyfakt.tif	425907.028996	425907.279234	425908.025578	7.505654e-01	61	none	NaN	NaN
101	6	98	85	kitchen	sun_afuyedyxivkhecmu.tif	425908.797098	425909.047423	425909.793681	7.338861e-01	75	none	NaN	NaN
101	6	99	93	kitchen	sun_ahspylgoovwmwvgk.tif	425910.565218	425910.815331	425911.561743	7.338861e-01	83	none	NaN	NaN
101	6	100	72	kitchen	sun_abpwyqmlzafvklqo.tif	425912.333325	425912.583509	425913.329761	7.505654e-01	62	none	NaN	NaN
101	7	1	30	bathroom	sun_ajlawzvmubibwbpy.tif	425947.395139	425947.645386	425948.341602	6.671692e-01	20	37	425949.304622	1
101	7	2	24	bathroom	sun_agrwbmhcpmfuwmsg.tif	425950.097363	425950.347541	425951.043748	7.505654e-01	14	none	NaN	NaN
101	7	3	18	bathroom	sun_acgyywnybuveqsro.tif	425951.815405	425952.065670	425952.761912	7.672446e-01	8	none	NaN	NaN
101	7	4	11	bathroom	labelme_sfxiulhjbhlyiyt.tif	425953.533485	425953.783673	425954.480013	7.505654e-01	1	none	NaN	NaN
101	7	5	36	bathroom	sun_ambriybtogmepttm.tif	425955.251529	425955.501773	425956.197930	7.839238e-01	26	none	NaN	NaN
101	7	6	59	bathroom	sun_axyrejkiiaqiurjk.tif	425956.969596	425957.219851	425957.916179	8.006030e-01	49	37	425959.048583	0
101	7	7	41	bathroom	sun_aoybiabnpadelefl.tif	425959.838587	425960.088689	425960.785026	7.005277e-01	31	none	NaN	NaN
101	7	8	27	bathroom	sun_ahcvzmoyaycdoftf.tif	425961.556669	425961.807005	425962.503155	7.338861e-01	17	none	NaN	NaN
101	7	9	33	bathroom	sun_aljolscmmzydegqp.tif	425963.274728	425963.524937	425964.221120	7.338861e-01	23	none	NaN	NaN
101	7	10	19	bathroom	sun_aclfzgynxzxlbepz.tif	425964.992800	425965.243028	425965.939381	6.671692e-01	9	none	NaN	NaN
101	7	11	50	bathroom	sun_aspsyogrekjtfozg.tif	425966.710852	425966.961069	425967.657413	7.505654e-01	40	none	NaN	NaN
101	7	12	25	bathroom	sun_agyqfjcfkdcydepw.tif	425968.428930	425968.679328	425969.375533	6.504900e-01	15	37	425976.568597	1
101	7	13	48	bathroom	sun_aqrpegblszgcoujh.tif	425977.369516	425977.619603	425978.315927	8.006030e-01	38	none	NaN	NaN
101	7	14	52	bathroom	sun_aunuadmjocsddsrl.tif	425979.087587	425979.337807	425980.033982	8.339615e-01	42	none	NaN	NaN
101	7	15	45	bathroom	sun_apkxzenqapsujocq.tif	425980.805657	425981.055922	425981.752024	8.006030e-01	35	none	NaN	NaN
101	7	16	54	bathroom	sun_auzqhkafidnkrwmo.tif	425982.523722	425982.774067	425983.470086	6.838484e-01	44	none	NaN	NaN
101	7	17	43	bathroom	sun_apjevzvycyhuqghb.tif	425984.241763	425984.491974	425985.188232	6.838484e-01	33	37	425986.128497	1
101	7	18	23	bathroom	sun_aghyqhbptboemmoq.tif	425986.927303	425987.177406	425987.873805	7.672446e-01	13	none	NaN	NaN
101	7	19	57	bathroom	sun_axldvoqbuvuggfmq.tif	425988.645357	425988.895545	425989.591890	7.505654e-01	47	none	NaN	NaN
101	7	20	13	bathroom	sun_aavhrsfjbserjtht.tif	425990.363418	425990.613604	425991.309807	8.172823e-01	3	none	NaN	NaN
101	7	21	28	bathroom	sun_ahijqszoswveeyji.tif	425992.081474	425992.331733	425993.027976	7.338861e-01	18	39	425994.360459	1
101	7	22	51	bathroom	sun_atstyziqcmkahyxk.tif	425995.150661	425995.400737	425996.097142	7.172069e-01	41	none	NaN	NaN
101	7	23	55	bathroom	sun_avhrdrntsqrjzccq.tif	425996.868695	425997.119022	425997.815247	7.172069e-01	45	none	NaN	NaN
101	7	24	40	bathroom	sun_aofnryafpsjimzsb.tif	425998.586778	425998.836928	425999.533202	7.005277e-01	30	none	NaN	NaN
101	7	25	44	bathroom	sun_apkruvsevgegsdwp.tif	426000.304827	426000.554913	426001.251207	8.006030e-01	34	none	NaN	NaN
101	7	26	42	bathroom	sun_apeeialkgkuxddgh.tif	426002.022899	426002.273057	426002.969423	8.172823e-01	32	none	NaN	NaN
101	7	27	20	bathroom	sun_afcoljnjfoxjtgja.tif	426003.740943	426003.991282	426004.687453	7.172069e-01	10	none	NaN	NaN
101	7	28	17	bathroom	sun_acegryoqftbzowsg.tif	426005.459022	426005.709230	426006.405523	8.339615e-01	7	none	NaN	NaN
101	7	29	37	bathroom	sun_amzlamotzwfkwjco.tif	426007.177080	426007.427376	426008.123485	6.838484e-01	27	none	NaN	NaN
101	7	30	16	bathroom	sun_acduarbnmmoglmiv.tif	426008.895152	426009.145310	426009.841613	6.838484e-01	6	none	NaN	NaN
101	7	31	34	bathroom	sun_alkosphxlxwjwgjd.tif	426010.613236	426010.863388	426011.559718	8.339615e-01	24	none	NaN	NaN
101	7	32	49	bathroom	sun_asfwthctfqerjvxr.tif	426012.331280	426012.581464	426013.277776	7.672446e-01	39	none	NaN	NaN
101	7	33	31	bathroom	sun_akiytfaagpdsphgz.tif	426014.049343	426014.299425	426014.995737	7.839238e-01	21	none	NaN	NaN
101	7	34	53	bathroom	sun_ausgutylgojavyoq.tif	426015.767400	426016.017564	426016.713995	7.005277e-01	43	37	426018.184684	0
101	7	35	39	bathroom	sun_anryaplzeujmzfkd.tif	426018.986700	426019.236811	426019.933066	8.339615e-01	29	none	NaN	NaN
101	7	36	21	bathroom	sun_aggnnqpdorgxpvce.tif	426020.704757	426020.954950	426021.651231	7.839238e-01	11	37	426023.176500	0
101	7	37	56	bathroom	sun_awnqiikzaispgmwo.tif	426023.974090	426024.224171	426024.920617	7.338861e-01	46	none	NaN	NaN
101	7	38	14	bathroom	sun_abapwbhyhkfixyex.tif	426025.692149	426025.942464	426026.638532	8.172823e-01	4	none	NaN	NaN
101	7	39	60	bathroom	sun_azqyogdvyhahyram.tif	426027.410221	426027.660510	426028.356609	7.672446e-01	50	none	NaN	NaN
101	7	40	38	bathroom	sun_anhioqovhscjqqwb.tif	426029.128275	426029.378532	426030.074785	8.172823e-01	28	none	NaN	NaN
101	7	41	47	bathroom	sun_apynckhmoftszqoq.tif	426030.846355	426031.096684	426031.792838	6.504900e-01	37	none	NaN	NaN
101	7	42	12	bathroom	sun_aapitsgbtktqubfy.tif	426032.564402	426032.814639	426033.510808	8.006030e-01	2	none	NaN	NaN
101	7	43	22	bathroom	sun_agguqiubmwhqqunb.tif	426034.282442	426034.532740	426035.228847	7.505654e-01	12	37	426036.392558	1
101	7	44	46	bathroom	sun_apmqjbnwghzuhhzh.tif	426037.184821	426037.434926	426038.131296	8.339615e-01	36	none	NaN	NaN
101	7	45	58	bathroom	sun_axxbkopsgyouuebh.tif	426038.902888	426039.152694	426039.849318	8.172823e-01	48	none	NaN	NaN
101	7	46	35	bathroom	sun_alotolagknyrgtsk.tif	426040.620940	426040.871276	426041.567511	8.506407e-01	25	none	NaN	NaN
101	7	47	26	bathroom	sun_ahaulkltgpkeeemi.tif	426042.355699	426042.605912	426043.302067	8.006030e-01	16	none	NaN	NaN
101	7	48	29	bathroom	sun_ahqjwnzgolcaoidx.tif	426044.073753	426044.324083	426045.020297	6.671692e-01	19	none	NaN	NaN
101	7	49	32	bathroom	sun_aleqenyvunhactkl.tif	426045.791807	426046.041900	426046.738213	7.505654e-01	22	none	NaN	NaN
101	7	50	15	bathroom	sun_abjtwfukuwddzted.tif	426047.509941	426047.759685	426048.456370	6.504900e-01	5	none	NaN	NaN
101	7	51	16	bathroom	sun_acduarbnmmoglmiv.tif	426049.227937	426049.478173	426050.174367	7.172069e-01	6	none	NaN	NaN
101	7	52	53	bathroom	sun_ausgutylgojavyoq.tif	426050.946013	426051.196341	426051.892378	8.339615e-01	43	none	NaN	NaN
101	7	53	23	bathroom	sun_aghyqhbptboemmoq.tif	426052.664081	426052.914418	426053.610589	7.839238e-01	13	none	NaN	NaN
101	7	54	17	bathroom	sun_acegryoqftbzowsg.tif	426054.382135	426054.632350	426055.328718	6.671692e-01	7	none	NaN	NaN
101	7	55	32	bathroom	sun_aleqenyvunhactkl.tif	426056.100189	426056.350330	426057.046733	8.339615e-01	22	37	426057.976411	1
101	7	56	37	bathroom	sun_amzlamotzwfkwjco.tif	426058.769041	426059.019381	426059.715501	8.172823e-01	27	none	NaN	NaN
101	7	57	59	bathroom	sun_axyrejkiiaqiurjk.tif	426060.487086	426060.737309	426061.433531	7.505654e-01	49	39	426063.352389	1
101	7	58	41	bathroom	sun_aoybiabnpadelefl.tif	426064.156742	426064.407062	426065.103232	7.005277e-01	31	none	NaN	NaN
101	7	59	26	bathroom	sun_ahaulkltgpkeeemi.tif	426065.874810	426066.124980	426066.821299	8.172823e-01	16	none	NaN	NaN
101	7	60	55	bathroom	sun_avhrdrntsqrjzccq.tif	426067.592880	426067.843025	426068.539411	6.671692e-01	45	none	NaN	NaN
101	7	61	40	bathroom	sun_aofnryafpsjimzsb.tif	426069.310929	426069.561038	426070.257357	7.338861e-01	30	none	NaN	NaN
101	7	62	33	bathroom	sun_aljolscmmzydegqp.tif	426071.028995	426071.279316	426071.975565	7.005277e-01	23	none	NaN	NaN
101	7	63	24	bathroom	sun_agrwbmhcpmfuwmsg.tif	426072.747064	426072.997419	426073.693543	7.672446e-01	14	none	NaN	NaN
101	7	64	39	bathroom	sun_anryaplzeujmzfkd.tif	426074.465128	426074.715332	426075.411667	8.506407e-01	29	none	NaN	NaN
101	7	65	38	bathroom	sun_anhioqovhscjqqwb.tif	426076.183189	426076.433513	426077.129649	6.504900e-01	28	none	NaN	NaN
101	7	66	15	bathroom	sun_abjtwfukuwddzted.tif	426077.901255	426078.151382	426078.847911	6.838484e-01	5	none	NaN	NaN
101	7	67	42	bathroom	sun_apeeialkgkuxddgh.tif	426079.619327	426079.869490	426080.565772	7.839238e-01	32	none	NaN	NaN
101	7	68	11	bathroom	labelme_sfxiulhjbhlyiyt.tif	426081.337387	426081.587597	426082.283815	8.506407e-01	1	none	NaN	NaN
101	7	69	12	bathroom	sun_aapitsgbtktqubfy.tif	426083.055442	426083.305751	426084.001887	6.838484e-01	2	none	NaN	NaN
101	7	70	43	bathroom	sun_apjevzvycyhuqghb.tif	426084.773546	426085.023736	426085.720037	7.338861e-01	33	none	NaN	NaN
101	7	71	47	bathroom	sun_apynckhmoftszqoq.tif	426086.491586	426086.741719	426087.438167	8.006030e-01	37	37	426088.536245	1
101	7	72	34	bathroom	sun_alkosphxlxwjwgjd.tif	426089.327219	426089.577564	426090.273691	7.505654e-01	24	none	NaN	NaN
101	7	73	30	bathroom	sun_ajlawzvmubibwbpy.tif	426091.045288	426091.295459	426091.991732	7.172069e-01	20	none	NaN	NaN
101	7	74	56	bathroom	sun_awnqiikzaispgmwo.tif	426092.763333	426093.013436	426093.709917	6.671692e-01	46	none	NaN	NaN
101	7	75	36	bathroom	sun_ambriybtogmepttm.tif	426094.481400	426094.731489	426095.427807	8.172823e-01	26	none	NaN	NaN
101	7	76	46	bathroom	sun_apmqjbnwghzuhhzh.tif	426096.199465	426096.449799	426097.145963	6.671692e-01	36	none	NaN	NaN
101	7	77	14	bathroom	sun_abapwbhyhkfixyex.tif	426097.917509	426098.167790	426098.863886	7.839238e-01	4	none	NaN	NaN
101	7	78	19	bathroom	sun_aclfzgynxzxlbepz.tif	426099.635599	426099.885872	426100.582053	7.005277e-01	9	none	NaN	NaN
101	7	79	25	bathroom	sun_agyqfjcfkdcydepw.tif	426101.353651	426101.603439	426102.300123	7.005277e-01	15	none	NaN	NaN
101	7	80	13	bathroom	sun_aavhrsfjbserjtht.tif	426103.071741	426103.321812	426104.018186	7.338861e-01	3	none	NaN	NaN
101	7	81	60	bathroom	sun_azqyogdvyhahyram.tif	426104.789800	426105.040029	426105.736380	7.338861e-01	50	none	NaN	NaN
101	7	82	50	bathroom	sun_aspsyogrekjtfozg.tif	426106.507850	426106.758113	426107.454318	6.504900e-01	40	39	426109.232362	1
101	7	83	22	bathroom	sun_agguqiubmwhqqunb.tif	426110.027381	426110.277616	426110.973871	6.671692e-01	12	none	NaN	NaN
101	7	84	20	bathroom	sun_afcoljnjfoxjtgja.tif	426111.745435	426111.995593	426112.691833	8.339615e-01	10	none	NaN	NaN
101	7	85	18	bathroom	sun_acgyywnybuveqsro.tif	426113.463486	426113.713716	426114.409888	6.838484e-01	8	none	NaN	NaN
101	7	86	58	bathroom	sun_axxbkopsgyouuebh.tif	426115.181579	426115.431886	426116.128041	7.672446e-01	48	none	NaN	NaN
101	7	87	35	bathroom	sun_alotolagknyrgtsk.tif	426116.899618	426117.149777	426117.846012	7.172069e-01	25	none	NaN	NaN
101	7	88	44	bathroom	sun_apkruvsevgegsdwp.tif	426118.617682	426118.867960	426119.564246	7.005277e-01	34	none	NaN	NaN
101	7	89	48	bathroom	sun_aqrpegblszgcoujh.tif	426120.335750	426120.585897	426121.282284	7.839238e-01	38	none	NaN	NaN
101	7	90	45	bathroom	sun_apkxzenqapsujocq.tif	426122.053783	426122.304015	426123.000169	7.839238e-01	35	none	NaN	NaN
101	7	91	57	bathroom	sun_axldvoqbuvuggfmq.tif	426123.771875	426124.021687	426124.718392	7.172069e-01	47	37	426126.296572	0
101	7	92	51	bathroom	sun_atstyziqcmkahyxk.tif	426127.091264	426127.341426	426128.037848	7.172069e-01	41	none	NaN	NaN
101	7	93	31	bathroom	sun_akiytfaagpdsphgz.tif	426128.809300	426129.059658	426129.755689	8.006030e-01	21	none	NaN	NaN
101	7	94	29	bathroom	sun_ahqjwnzgolcaoidx.tif	426130.527374	426130.777692	426131.473782	8.339615e-01	19	none	NaN	NaN
101	7	95	54	bathroom	sun_auzqhkafidnkrwmo.tif	426132.245431	426132.495771	426133.191810	8.506407e-01	44	37	426134.408404	1
101	7	96	49	bathroom	sun_asfwthctfqerjvxr.tif	426135.197836	426135.448065	426136.144310	7.672446e-01	39	none	NaN	NaN
101	7	97	52	bathroom	sun_aunuadmjocsddsrl.tif	426136.915908	426137.166250	426137.862325	7.672446e-01	42	none	NaN	NaN
101	7	98	28	bathroom	sun_ahijqszoswveeyji.tif	426138.633968	426138.884224	426139.580358	6.838484e-01	18	none	NaN	NaN
101	7	99	21	bathroom	sun_aggnnqpdorgxpvce.tif	426140.352017	426140.602325	426141.298446	7.005277e-01	11	37	426142.496557	1
101	7	100	27	bathroom	sun_ahcvzmoyaycdoftf.tif	426143.287752	426143.537972	426144.234315	7.672446e-01	17	none	NaN	NaN
101	8	1	66	kitchen	sun_aapllqyqlykszopd.tif	426183.120133	426183.370182	426184.066677	6.838484e-01	56	none	NaN	NaN
101	8	2	91	kitchen	sun_ahljzhgcdpomplvg.tif	426184.838192	426185.088400	426185.784747	7.505654e-01	81	37	426186.528360	1
101	8	3	104	kitchen	sun_auticobqsbwgoppi.tif	426187.323553	426187.573636	426188.270120	8.506407e-01	94	none	NaN	NaN
101	8	4	109	kitchen	sun_aypmqwcualkenuoe.tif	426189.041618	426189.292790	426189.988130	7.839238e-01	99	none	NaN	NaN
101	8	5	81	kitchen	sun_aehawpgmrlhlvcow.tif	426190.759674	426191.009924	426191.706246	7.172069e-01	71	37	426192.376164	1
101	8	6	101	kitchen	sun_aqeaevwwwjoqhzvl.tif	426193.178317	426193.428514	426194.124775	7.172069e-01	91	none	NaN	NaN
101	8	7	85	kitchen	sun_afuyedyxivkhecmu.tif	426194.896372	426195.146537	426195.842948	8.172823e-01	75	none	NaN	NaN
101	8	8	83	kitchen	sun_aeqdocilnnpuvuhx.tif	426196.614422	426196.864738	426197.560787	7.005277e-01	73	none	NaN	NaN
101	8	9	80	kitchen	sun_aegoxogugdkwpmpj.tif	426198.332489	426198.582760	426199.278918	8.006030e-01	70	none	NaN	NaN
101	8	10	86	kitchen	sun_aggjlwcdjsjcaemh.tif	426200.050571	426200.300760	426200.997054	6.671692e-01	76	39	426201.672165	1
101	8	11	65	kitchen	sun_aamedkxepzlwuxes.tif	426202.469207	426202.719436	426203.415718	7.005277e-01	55	none	NaN	NaN
101	8	12	98	kitchen	sun_akchetnepxlcxhsu.tif	426204.187268	426204.437431	426205.133639	7.005277e-01	88	none	NaN	NaN
101	8	13	77	kitchen	sun_acxkpeoqbwcxfvip.tif	426205.905310	426206.155655	426206.851848	8.006030e-01	67	none	NaN	NaN
101	8	14	96	kitchen	sun_ajcbwwvdlsvjyzje.tif	426207.623392	426207.873498	426208.569767	8.339615e-01	86	none	NaN	NaN
101	8	15	84	kitchen	sun_aexklacwqwezaorf.tif	426209.341452	426209.591667	426210.287973	7.172069e-01	74	39	426212.240534	1
101	8	16	79	kitchen	sun_admlmbcdswaszruo.tif	426213.044456	426213.294579	426213.990879	7.505654e-01	69	none	NaN	NaN
101	8	17	89	kitchen	sun_agzzivivdpnawacl.tif	426214.762518	426215.012736	426215.708921	8.506407e-01	79	37	426216.912299	1
101	8	18	92	kitchen	sun_ahpczsiumwwocjkv.tif	426217.714919	426217.965004	426218.661306	8.339615e-01	82	none	NaN	NaN
101	8	19	93	kitchen	sun_ahspylgoovwmwvgk.tif	426219.432988	426219.683255	426220.379478	7.839238e-01	83	39	426221.600360	1
101	8	20	87	kitchen	sun_agorklincwxrdtga.tif	426222.402073	426222.652333	426223.348541	7.839238e-01	77	37	426224.496720	1
101	8	21	68	kitchen	sun_aaxxjlsuzvqlgylf.tif	426225.287735	426225.538098	426226.234203	6.838484e-01	58	none	NaN	NaN
101	8	22	76	kitchen	sun_acwjdupvyjsugpay.tif	426227.005827	426227.256080	426227.952326	6.504900e-01	66	none	NaN	NaN
101	8	23	67	kitchen	sun_aarfiyshqohlwkmo.tif	426228.723876	426228.974158	426229.670377	6.671692e-01	57	none	NaN	NaN
101	8	24	97	kitchen	sun_ajkqhtgcbgpcwrwn.tif	426230.441866	426230.692258	426231.388413	7.505654e-01	87	none	NaN	NaN
101	8	25	110	kitchen	sun_azmutvzbxypaceni.tif	426232.159995	426232.410245	426233.106442	7.172069e-01	100	none	NaN	NaN
101	8	26	105	kitchen	sun_avszsnwsbuqfgzbn.tif	426233.878068	426234.128403	426234.824569	7.839238e-01	95	none	NaN	NaN
101	8	27	70	kitchen	sun_abdxkyyxwfskuaqb.tif	426235.596141	426235.846236	426236.542606	8.506407e-01	60	none	NaN	NaN
101	8	28	69	kitchen	sun_abdenxonkemggwsq.tif	426237.314195	426237.564254	426238.260763	7.505654e-01	59	none	NaN	NaN
101	8	29	64	kitchen	sun_aadbddgrdsjugojn.tif	426239.032286	426239.282338	426239.978696	8.506407e-01	54	none	NaN	NaN
101	8	30	72	kitchen	sun_abpwyqmlzafvklqo.tif	426240.750324	426241.000448	426241.696824	7.672446e-01	62	none	NaN	NaN
101	8	31	71	kitchen	sun_abftihopvusyfakt.tif	426242.468376	426242.718745	426243.414925	7.505654e-01	61	none	NaN	NaN
101	8	32	108	kitchen	sun_aymvwlarqodbwuoc.tif	426244.186448	426244.436726	426245.133038	8.339615e-01	98	none	NaN	NaN
101	8	33	102	kitchen	sun_auaiucuqpdausiva.tif	426245.904495	426246.154785	426246.850988	7.338861e-01	92	none	NaN	NaN
101	8	34	75	kitchen	sun_acgtpgfybqjmzeyw.tif	426247.622577	426247.872407	426248.568996	7.839238e-01	65	none	NaN	NaN
101	8	35	100	kitchen	sun_amjjdeyrggfqgmom.tif	426249.340623	426249.590923	426250.287157	8.172823e-01	90	none	NaN	NaN
101	8	36	74	kitchen	sun_acfmftudsenhrfhy.tif	426251.058718	426251.309048	426252.005211	7.672446e-01	64	none	NaN	NaN
101	8	37	73	kitchen	sun_abrcnpqqhmjwekyf.tif	426252.776758	426253.026964	426253.723335	8.006030e-01	63	none	NaN	NaN
101	8	38	94	kitchen	sun_ahywdevtimnqcsln.tif	426254.494825	426254.745137	426255.441247	8.172823e-01	84	none	NaN	NaN
101	8	39	106	kitchen	sun_awcpdzzznmweyyhv.tif	426256.212899	426256.463204	426257.159318	6.838484e-01	96	none	NaN	NaN
101	8	40	103	kitchen	sun_aunzlwrbjumxhwdj.tif	426257.930972	426258.180530	426258.877549	7.172069e-01	93	none	NaN	NaN
101	8	41	99	kitchen	sun_akcjzhbbjlbogpdi.tif	426259.649012	426259.899288	426260.595557	7.505654e-01	89	none	NaN	NaN
101	8	42	63	kitchen	labelme_rykdqxenmhulbdn.tif	426261.367078	426261.617311	426262.313480	8.339615e-01	53	none	NaN	NaN
101	8	43	61	kitchen	labelme_brsyyvweiuaazfr.tif	426263.085144	426263.335481	426264.031659	7.505654e-01	51	none	NaN	NaN
101	8	44	88	kitchen	sun_agubuxuukhzyzpdp.tif	426264.803210	426265.053459	426265.749659	7.672446e-01	78	none	NaN	NaN
101	8	45	95	kitchen	sun_aixorpehvfykdynp.tif	426266.521269	426266.771461	426267.467783	7.172069e-01	85	none	NaN	NaN
101	8	46	62	kitchen	labelme_kxvouciolcpqplr.tif	426268.239313	426268.489597	426269.185692	7.839238e-01	52	none	NaN	NaN
101	8	47	78	kitchen	sun_adgqasybjyktddhj.tif	426269.957385	426270.207714	426270.903862	8.339615e-01	68	none	NaN	NaN
101	8	48	82	kitchen	sun_aenotlpyftoioydp.tif	426271.675464	426271.925771	426272.621995	6.671692e-01	72	37	426274.312495	1
101	8	49	90	kitchen	sun_ahdycvpopffkzzsu.tif	426275.111603	426275.361908	426276.058108	7.338861e-01	80	none	NaN	NaN
101	8	50	107	kitchen	sun_axyyrmzcupyhlivc.tif	426276.829652	426277.079869	426277.776185	6.838484e-01	97	none	NaN	NaN
101	8	51	109	kitchen	sun_aypmqwcualkenuoe.tif	426278.547699	426278.797872	426279.494143	7.672446e-01	99	none	NaN	NaN
101	8	52	75	kitchen	sun_acgtpgfybqjmzeyw.tif	426280.265762	426280.515942	426281.212164	7.172069e-01	65	none	NaN	NaN
101	8	53	76	kitchen	sun_acwjdupvyjsugpay.tif	426281.983822	426282.233954	426282.930241	6.671692e-01	66	none	NaN	NaN
101	8	54	66	kitchen	sun_aapllqyqlykszopd.tif	426283.701899	426283.951985	426284.648347	6.504900e-01	56	none	NaN	NaN
101	8	55	107	kitchen	sun_axyyrmzcupyhlivc.tif	426285.419969	426285.670284	426286.366550	7.005277e-01	97	37	426287.840401	1
101	8	56	64	kitchen	sun_aadbddgrdsjugojn.tif	426288.639246	426288.889483	426289.585660	8.339615e-01	54	37	426290.960325	1
101	8	57	101	kitchen	sun_aqeaevwwwjoqhzvl.tif	426291.758455	426292.008660	426292.704932	6.838484e-01	91	none	NaN	NaN
101	8	58	79	kitchen	sun_admlmbcdswaszruo.tif	426293.476518	426293.726812	426294.423046	7.338861e-01	69	none	NaN	NaN
101	8	59	61	kitchen	labelme_brsyyvweiuaazfr.tif	426295.194576	426295.444886	426296.141124	7.672446e-01	51	none	NaN	NaN
101	8	60	92	kitchen	sun_ahpczsiumwwocjkv.tif	426296.912666	426297.162858	426297.859240	7.672446e-01	82	none	NaN	NaN
101	8	61	63	kitchen	labelme_rykdqxenmhulbdn.tif	426298.630711	426298.881019	426299.577110	7.338861e-01	53	none	NaN	NaN
101	8	62	93	kitchen	sun_ahspylgoovwmwvgk.tif	426300.348775	426300.598573	426301.295161	7.338861e-01	83	none	NaN	NaN
101	8	63	106	kitchen	sun_awcpdzzznmweyyhv.tif	426302.066831	426302.316981	426303.013264	7.005277e-01	96	none	NaN	NaN
101	8	64	83	kitchen	sun_aeqdocilnnpuvuhx.tif	426303.784896	426304.035143	426304.731457	6.838484e-01	73	none	NaN	NaN
101	8	65	70	kitchen	sun_abdxkyyxwfskuaqb.tif	426305.502950	426305.753082	426306.449455	7.005277e-01	60	none	NaN	NaN
101	8	66	84	kitchen	sun_aexklacwqwezaorf.tif	426307.221024	426307.471198	426308.167441	7.672446e-01	74	none	NaN	NaN
101	8	67	78	kitchen	sun_adgqasybjyktddhj.tif	426308.939079	426309.189147	426309.885588	8.006030e-01	68	none	NaN	NaN
101	8	68	77	kitchen	sun_acxkpeoqbwcxfvip.tif	426310.657156	426310.907258	426311.603732	7.839238e-01	67	none	NaN	NaN
101	8	69	74	kitchen	sun_acfmftudsenhrfhy.tif	426312.375205	426312.625544	426313.321749	8.172823e-01	64	none	NaN	NaN
101	8	70	94	kitchen	sun_ahywdevtimnqcsln.tif	426314.093284	426314.343482	426315.039817	7.005277e-01	84	39	426318.480350	1
101	8	71	95	kitchen	sun_aixorpehvfykdynp.tif	426319.280819	426319.530923	426320.227295	6.671692e-01	85	39	426322.040398	1
101	8	72	73	kitchen	sun_abrcnpqqhmjwekyf.tif	426322.833735	426323.083518	426323.780161	8.006030e-01	63	37	426324.896294	1
101	8	73	88	kitchen	sun_agubuxuukhzyzpdp.tif	426325.686031	426325.936220	426326.632403	8.172823e-01	78	none	NaN	NaN
101	8	74	98	kitchen	sun_akchetnepxlcxhsu.tif	426327.404100	426327.654376	426328.350683	8.006030e-01	88	none	NaN	NaN
101	8	75	80	kitchen	sun_aegoxogugdkwpmpj.tif	426329.122153	426329.372368	426330.068665	6.671692e-01	70	39	426331.216353	1
101	8	76	65	kitchen	sun_aamedkxepzlwuxes.tif	426332.007828	426332.258026	426332.954324	7.672446e-01	55	none	NaN	NaN
101	8	77	103	kitchen	sun_aunzlwrbjumxhwdj.tif	426333.725893	426333.975991	426334.672335	7.338861e-01	93	none	NaN	NaN
101	8	78	86	kitchen	sun_aggjlwcdjsjcaemh.tif	426335.443964	426335.694202	426336.390422	8.006030e-01	76	none	NaN	NaN
101	8	79	71	kitchen	sun_abftihopvusyfakt.tif	426337.162024	426337.412179	426338.108496	7.505654e-01	61	none	NaN	NaN
101	8	80	81	kitchen	sun_aehawpgmrlhlvcow.tif	426338.880103	426339.130257	426339.826536	8.339615e-01	71	none	NaN	NaN
101	8	81	96	kitchen	sun_ajcbwwvdlsvjyzje.tif	426340.598139	426340.848360	426341.544652	6.671692e-01	86	none	NaN	NaN
101	8	82	102	kitchen	sun_auaiucuqpdausiva.tif	426342.316223	426342.566505	426343.262740	7.005277e-01	92	none	NaN	NaN
101	8	83	62	kitchen	labelme_kxvouciolcpqplr.tif	426344.034287	426344.284491	426344.980784	7.338861e-01	52	none	NaN	NaN
101	8	84	108	kitchen	sun_aymvwlarqodbwuoc.tif	426345.752326	426346.002546	426346.698699	6.504900e-01	98	none	NaN	NaN
101	8	85	72	kitchen	sun_abpwyqmlzafvklqo.tif	426347.470414	426347.720679	426348.416828	8.172823e-01	62	none	NaN	NaN
101	8	86	87	kitchen	sun_agorklincwxrdtga.tif	426349.188499	426349.438810	426350.134971	7.338861e-01	77	none	NaN	NaN
101	8	87	90	kitchen	sun_ahdycvpopffkzzsu.tif	426350.906529	426351.156733	426351.853268	8.006030e-01	80	none	NaN	NaN
101	8	88	82	kitchen	sun_aenotlpyftoioydp.tif	426352.624591	426352.874771	426353.571075	6.838484e-01	72	none	NaN	NaN
101	8	89	100	kitchen	sun_amjjdeyrggfqgmom.tif	426354.342645	426354.592919	426355.289076	7.172069e-01	90	39	426357.736274	1
101	8	90	67	kitchen	sun_aarfiyshqohlwkmo.tif	426358.529384	426358.779208	426359.475787	7.005277e-01	57	none	NaN	NaN
101	8	91	104	kitchen	sun_auticobqsbwgoppi.tif	426360.247461	426360.497584	426361.193962	8.172823e-01	94	none	NaN	NaN
101	8	92	110	kitchen	sun_azmutvzbxypaceni.tif	426361.965532	426362.215842	426362.911903	7.672446e-01	100	none	NaN	NaN
101	8	93	105	kitchen	sun_avszsnwsbuqfgzbn.tif	426363.683578	426363.933931	426364.629977	8.172823e-01	95	none	NaN	NaN
101	8	94	97	kitchen	sun_ajkqhtgcbgpcwrwn.tif	426365.401652	426365.651791	426366.348175	8.339615e-01	87	none	NaN	NaN
101	8	95	85	kitchen	sun_afuyedyxivkhecmu.tif	426367.119718	426367.369991	426368.066201	8.339615e-01	75	none	NaN	NaN
101	8	96	89	kitchen	sun_agzzivivdpnawacl.tif	426368.837786	426369.087965	426369.784228	7.839238e-01	79	none	NaN	NaN
101	8	97	91	kitchen	sun_ahljzhgcdpomplvg.tif	426370.555844	426370.806063	426371.502379	6.671692e-01	81	none	NaN	NaN
101	8	98	99	kitchen	sun_akcjzhbbjlbogpdi.tif	426372.273914	426372.524211	426373.220446	6.504900e-01	89	none	NaN	NaN
101	8	99	68	kitchen	sun_aaxxjlsuzvqlgylf.tif	426373.991969	426374.242235	426374.938407	6.838484e-01	58	none	NaN	NaN
101	8	100	69	kitchen	sun_abdenxonkemggwsq.tif	426375.710044	426375.960338	426376.656448	6.504900e-01	59	none	NaN	NaN
101	9	1	11	bathroom	labelme_sfxiulhjbhlyiyt.tif	426423.115253	426423.365552	426424.028328	7.839238e-01	1	none	NaN	NaN
101	9	2	24	bathroom	sun_agrwbmhcpmfuwmsg.tif	426424.799949	426425.050264	426425.713046	8.506407e-01	14	none	NaN	NaN
101	9	3	60	bathroom	sun_azqyogdvyhahyram.tif	426426.485308	426426.751507	426427.398434	7.005277e-01	50	none	NaN	NaN
101	9	4	19	bathroom	sun_aclfzgynxzxlbepz.tif	426428.169342	426428.419707	426429.082550	7.839238e-01	9	none	NaN	NaN
101	9	5	14	bathroom	sun_abapwbhyhkfixyex.tif	426429.854050	426430.104319	426430.767143	8.172823e-01	4	none	NaN	NaN
101	9	6	15	bathroom	sun_abjtwfukuwddzted.tif	426431.538768	426431.789006	426432.452012	6.838484e-01	5	39	426433.800282	1
101	9	7	21	bathroom	sun_aggnnqpdorgxpvce.tif	426434.591224	426434.841505	426435.504327	7.505654e-01	11	none	NaN	NaN
101	9	8	38	bathroom	sun_anhioqovhscjqqwb.tif	426436.275949	426436.526225	426437.189042	6.504900e-01	28	none	NaN	NaN
101	9	9	44	bathroom	sun_apkruvsevgegsdwp.tif	426437.960629	426438.210971	426438.873806	6.671692e-01	34	none	NaN	NaN
101	9	10	56	bathroom	sun_awnqiikzaispgmwo.tif	426439.645350	426439.895518	426440.558465	6.504900e-01	46	none	NaN	NaN
101	9	11	16	bathroom	sun_acduarbnmmoglmiv.tif	426441.330062	426441.579601	426442.243107	8.339615e-01	6	none	NaN	NaN
101	9	12	45	bathroom	sun_apkxzenqapsujocq.tif	426443.014741	426443.264968	426443.927803	8.006030e-01	35	none	NaN	NaN
101	9	13	18	bathroom	sun_acgyywnybuveqsro.tif	426444.699464	426444.949667	426445.612469	8.339615e-01	8	none	NaN	NaN
101	9	14	20	bathroom	sun_afcoljnjfoxjtgja.tif	426446.384157	426446.634402	426447.297382	7.839238e-01	10	39	426450.808223	0
101	9	15	49	bathroom	sun_asfwthctfqerjvxr.tif	426451.605056	426451.855390	426452.518114	8.172823e-01	39	none	NaN	NaN
101	9	16	31	bathroom	sun_akiytfaagpdsphgz.tif	426453.289764	426453.539866	426454.202767	7.672446e-01	21	none	NaN	NaN
101	9	17	17	bathroom	sun_acegryoqftbzowsg.tif	426454.974483	426455.224734	426455.887677	7.505654e-01	7	none	NaN	NaN
101	9	18	54	bathroom	sun_auzqhkafidnkrwmo.tif	426456.659186	426456.909433	426457.572212	8.506407e-01	44	none	NaN	NaN
101	9	19	50	bathroom	sun_aspsyogrekjtfozg.tif	426458.343831	426458.594226	426459.256989	8.172823e-01	40	none	NaN	NaN
101	9	20	34	bathroom	sun_alkosphxlxwjwgjd.tif	426460.028581	426460.278922	426460.941757	7.338861e-01	24	39	426462.424230	0
101	9	21	53	bathroom	sun_ausgutylgojavyoq.tif	426463.214498	426463.464645	426464.127534	6.838484e-01	43	none	NaN	NaN
101	9	22	13	bathroom	sun_aavhrsfjbserjtht.tif	426464.899199	426465.149540	426465.812203	6.671692e-01	3	none	NaN	NaN
101	9	23	52	bathroom	sun_aunuadmjocsddsrl.tif	426466.583910	426466.834181	426467.497005	6.504900e-01	42	none	NaN	NaN
101	9	24	12	bathroom	sun_aapitsgbtktqubfy.tif	426468.268632	426468.518872	426469.181756	7.505654e-01	2	none	NaN	NaN
101	9	25	39	bathroom	sun_anryaplzeujmzfkd.tif	426469.953306	426470.203516	426470.866462	7.338861e-01	29	none	NaN	NaN
101	9	26	29	bathroom	sun_ahqjwnzgolcaoidx.tif	426471.638026	426471.888302	426472.551116	7.172069e-01	19	none	NaN	NaN
101	9	27	26	bathroom	sun_ahaulkltgpkeeemi.tif	426473.322743	426473.573001	426474.235924	6.671692e-01	16	37	426475.264290	1
101	9	28	51	bathroom	sun_atstyziqcmkahyxk.tif	426476.058301	426476.308501	426476.971396	7.172069e-01	41	none	NaN	NaN
101	9	29	41	bathroom	sun_aoybiabnpadelefl.tif	426477.742999	426477.993241	426478.656219	7.839238e-01	31	none	NaN	NaN
101	9	30	28	bathroom	sun_ahijqszoswveeyji.tif	426479.427696	426479.677888	426480.340788	7.338861e-01	18	none	NaN	NaN
101	9	31	57	bathroom	sun_axldvoqbuvuggfmq.tif	426481.112397	426481.362642	426482.025473	8.006030e-01	47	none	NaN	NaN
101	9	32	32	bathroom	sun_aleqenyvunhactkl.tif	426482.797089	426483.047382	426483.710187	7.005277e-01	22	39	426487.344179	1
101	9	33	25	bathroom	sun_agyqfjcfkdcydepw.tif	426488.134763	426488.384994	426489.047962	8.006030e-01	15	none	NaN	NaN
101	9	34	30	bathroom	sun_ajlawzvmubibwbpy.tif	426489.819461	426490.069665	426490.732534	8.172823e-01	20	none	NaN	NaN
101	9	35	58	bathroom	sun_axxbkopsgyouuebh.tif	426491.504162	426491.754493	426492.417175	7.505654e-01	48	none	NaN	NaN
101	9	36	48	bathroom	sun_aqrpegblszgcoujh.tif	426493.188888	426493.438927	426494.102080	7.672446e-01	38	none	NaN	NaN
101	9	37	36	bathroom	sun_ambriybtogmepttm.tif	426494.873581	426495.123896	426495.786594	8.172823e-01	26	none	NaN	NaN
101	9	38	33	bathroom	sun_aljolscmmzydegqp.tif	426496.558291	426496.808410	426497.471384	7.672446e-01	23	none	NaN	NaN
101	9	39	42	bathroom	sun_apeeialkgkuxddgh.tif	426498.242984	426498.493169	426499.156196	7.839238e-01	32	none	NaN	NaN
101	9	40	55	bathroom	sun_avhrdrntsqrjzccq.tif	426499.927686	426500.177943	426500.840885	6.671692e-01	45	39	426502.191969	0
101	9	41	46	bathroom	sun_apmqjbnwghzuhhzh.tif	426502.996859	426503.247142	426503.909925	6.838484e-01	36	none	NaN	NaN
101	9	42	22	bathroom	sun_agguqiubmwhqqunb.tif	426504.681551	426504.931907	426505.594771	6.504900e-01	12	none	NaN	NaN
101	9	43	27	bathroom	sun_ahcvzmoyaycdoftf.tif	426506.366261	426506.616479	426507.279290	6.838484e-01	17	none	NaN	NaN
101	9	44	47	bathroom	sun_apynckhmoftszqoq.tif	426508.050951	426508.301203	426508.963983	6.838484e-01	37	none	NaN	NaN
101	9	45	59	bathroom	sun_axyrejkiiaqiurjk.tif	426509.735646	426509.985905	426510.648862	7.338861e-01	49	none	NaN	NaN
101	9	46	35	bathroom	sun_alotolagknyrgtsk.tif	426511.420376	426511.670569	426512.333506	6.671692e-01	25	37	426513.543948	1
101	9	47	40	bathroom	sun_aofnryafpsjimzsb.tif	426514.339385	426514.589665	426515.252444	7.005277e-01	30	37	426516.656231	0
101	9	48	23	bathroom	sun_aghyqhbptboemmoq.tif	426517.458608	426517.708714	426518.371722	7.839238e-01	13	none	NaN	NaN
101	9	49	43	bathroom	sun_apjevzvycyhuqghb.tif	426519.143247	426519.393564	426520.056252	6.671692e-01	33	none	NaN	NaN
101	9	50	37	bathroom	sun_amzlamotzwfkwjco.tif	426520.828010	426521.078177	426521.741232	8.006030e-01	27	none	NaN	NaN
