subject	block	trial	texture	category	image	trialOnset	itiOnset	trialEnd	iti	EEGtrigger	responseKey	responseTime	accuracy
109	1	1	13	bathroom	sun_aavhrsfjbserjtht.tif	587634.355979	587634.614574	587635.354838	7.508475e-01	3	none	NaN	NaN
109	1	2	49	bathroom	sun_asfwthctfqerjvxr.tif	587636.124400	587636.382993	587637.123372	8.426178e-01	39	none	NaN	NaN
109	1	3	25	bathroom	sun_agyqfjcfkdcydepw.tif	587637.892790	587638.151408	587638.891710	6.590773e-01	15	39	587640.163563	1
109	1	4	38	bathroom	sun_anhioqovhscjqqwb.tif	587640.937505	587641.196091	587641.936362	7.842185e-01	28	none	NaN	NaN
109	1	5	37	bathroom	sun_amzlamotzwfkwjco.tif	587642.705920	587642.964507	587643.704719	7.174765e-01	27	none	NaN	NaN
109	1	6	16	bathroom	sun_acduarbnmmoglmiv.tif	587644.474345	587644.732930	587645.473295	6.924483e-01	6	none	NaN	NaN
109	1	7	41	bathroom	sun_aoybiabnpadelefl.tif	587646.242766	587646.501352	587647.241657	6.924483e-01	31	39	587648.579731	1
109	1	8	55	bathroom	sun_avhrdrntsqrjzccq.tif	587649.354183	587649.612770	587650.353143	6.924483e-01	45	none	NaN	NaN
109	1	9	60	bathroom	sun_azqyogdvyhahyram.tif	587651.122605	587651.381193	587652.121430	7.425048e-01	50	37	587653.251543	1
109	1	10	29	bathroom	sun_ahqjwnzgolcaoidx.tif	587654.025483	587654.284074	587655.024259	7.341620e-01	19	none	NaN	NaN
109	1	11	15	bathroom	sun_abjtwfukuwddzted.tif	587655.793901	587656.052486	587656.792668	8.342750e-01	5	37	587657.723641	1
109	1	12	39	bathroom	sun_anryaplzeujmzfkd.tif	587658.496583	587658.755169	587659.495507	6.757628e-01	29	none	NaN	NaN
109	1	13	17	bathroom	sun_acegryoqftbzowsg.tif	587660.265004	587660.523592	587661.263931	8.092468e-01	7	none	NaN	NaN
109	1	14	30	bathroom	sun_ajlawzvmubibwbpy.tif	587662.033426	587662.292013	587663.032355	8.175895e-01	20	none	NaN	NaN
109	1	15	23	bathroom	sun_aghyqhbptboemmoq.tif	587663.801841	587664.060435	587664.800607	7.842185e-01	13	none	NaN	NaN
109	1	16	53	bathroom	sun_ausgutylgojavyoq.tif	587665.570262	587665.828851	587666.569149	7.508475e-01	43	none	NaN	NaN
109	1	17	59	bathroom	sun_axyrejkiiaqiurjk.tif	587667.338685	587667.597273	587668.337489	7.425048e-01	49	none	NaN	NaN
109	1	18	58	bathroom	sun_axxbkopsgyouuebh.tif	587669.107103	587669.365693	587670.105948	7.341620e-01	48	none	NaN	NaN
109	1	19	14	bathroom	sun_abapwbhyhkfixyex.tif	587670.875523	587671.134114	587671.874351	7.091338e-01	4	none	NaN	NaN
109	1	20	33	bathroom	sun_aljolscmmzydegqp.tif	587672.643941	587672.902529	587673.642876	6.924483e-01	23	none	NaN	NaN
109	1	21	46	bathroom	sun_apmqjbnwghzuhhzh.tif	587674.412362	587674.670949	587675.411153	7.341620e-01	36	39	587676.499569	1
109	1	22	18	bathroom	sun_acgyywnybuveqsro.tif	587677.273533	587677.532122	587678.272375	6.757628e-01	8	none	NaN	NaN
109	1	23	19	bathroom	sun_aclfzgynxzxlbepz.tif	587679.041954	587679.300547	587680.040822	7.758758e-01	9	none	NaN	NaN
109	1	24	11	bathroom	labelme_sfxiulhjbhlyiyt.tif	587680.810373	587681.068965	587681.809299	6.674200e-01	1	39	587682.899650	1
109	1	25	27	bathroom	sun_ahcvzmoyaycdoftf.tif	587683.671536	587683.930132	587684.670521	8.259323e-01	17	none	NaN	NaN
109	1	26	21	bathroom	sun_aggnnqpdorgxpvce.tif	587685.439966	587685.698553	587686.438809	7.591903e-01	11	none	NaN	NaN
109	1	27	42	bathroom	sun_apeeialkgkuxddgh.tif	587687.208390	587687.466977	587688.207314	7.591903e-01	32	none	NaN	NaN
109	1	28	56	bathroom	sun_awnqiikzaispgmwo.tif	587688.976804	587689.235395	587689.975704	8.175895e-01	46	none	NaN	NaN
109	1	29	44	bathroom	sun_apkruvsevgegsdwp.tif	587690.745227	587691.003818	587691.744203	7.425048e-01	34	none	NaN	NaN
109	1	30	20	bathroom	sun_afcoljnjfoxjtgja.tif	587692.505118	587692.755415	587693.504018	7.174765e-01	10	none	NaN	NaN
109	1	31	28	bathroom	sun_ahijqszoswveeyji.tif	587694.273726	587694.532319	587695.272690	8.426178e-01	18	none	NaN	NaN
109	1	32	26	bathroom	sun_ahaulkltgpkeeemi.tif	587696.042143	587696.300734	587697.041127	7.675330e-01	16	none	NaN	NaN
109	1	33	22	bathroom	sun_agguqiubmwhqqunb.tif	587697.810569	587698.069159	587698.809453	6.924483e-01	12	none	NaN	NaN
109	1	34	47	bathroom	sun_apynckhmoftszqoq.tif	587699.578983	587699.837576	587700.577834	7.591903e-01	37	none	NaN	NaN
109	1	35	45	bathroom	sun_apkxzenqapsujocq.tif	587701.347367	587701.605996	587702.346255	8.175895e-01	35	none	NaN	NaN
109	1	36	34	bathroom	sun_alkosphxlxwjwgjd.tif	587703.115824	587703.374414	587704.114770	8.342750e-01	24	none	NaN	NaN
109	1	37	12	bathroom	sun_aapitsgbtktqubfy.tif	587704.884242	587705.142835	587705.883090	8.092468e-01	2	none	NaN	NaN
109	1	38	52	bathroom	sun_aunuadmjocsddsrl.tif	587706.652665	587706.911259	587707.651433	7.091338e-01	42	none	NaN	NaN
109	1	39	50	bathroom	sun_aspsyogrekjtfozg.tif	587708.421084	587708.679672	587709.419883	7.925613e-01	40	none	NaN	NaN
109	1	40	54	bathroom	sun_auzqhkafidnkrwmo.tif	587710.189504	587710.448097	587711.188269	6.507345e-01	44	none	NaN	NaN
109	1	41	31	bathroom	sun_akiytfaagpdsphgz.tif	587711.957930	587712.216515	587712.956718	6.590773e-01	21	39	587714.123744	1
109	1	42	48	bathroom	sun_aqrpegblszgcoujh.tif	587714.894173	587715.152760	587715.893182	8.092468e-01	38	none	NaN	NaN
109	1	43	35	bathroom	sun_alotolagknyrgtsk.tif	587716.662591	587716.921183	587717.661482	8.009040e-01	25	none	NaN	NaN
109	1	44	24	bathroom	sun_agrwbmhcpmfuwmsg.tif	587718.431014	587718.689599	587719.429966	7.258193e-01	14	none	NaN	NaN
109	1	45	40	bathroom	sun_aofnryafpsjimzsb.tif	587720.199432	587720.458025	587721.198202	7.842185e-01	30	none	NaN	NaN
109	1	46	36	bathroom	sun_ambriybtogmepttm.tif	587721.967852	587722.226441	587722.966643	7.758758e-01	26	none	NaN	NaN
109	1	47	57	bathroom	sun_axldvoqbuvuggfmq.tif	587723.736275	587723.994858	587724.735245	8.259323e-01	47	none	NaN	NaN
109	1	48	43	bathroom	sun_apjevzvycyhuqghb.tif	587725.504694	587725.763285	587726.503542	6.507345e-01	33	none	NaN	NaN
109	1	49	32	bathroom	sun_aleqenyvunhactkl.tif	587727.273113	587727.531700	587728.271950	7.007910e-01	22	none	NaN	NaN
109	1	50	51	bathroom	sun_atstyziqcmkahyxk.tif	587729.041535	587729.300124	587730.040420	8.009040e-01	41	none	NaN	NaN
109	1	51	59	bathroom	sun_axyrejkiiaqiurjk.tif	587730.809949	587731.068543	587731.808859	7.007910e-01	49	none	NaN	NaN
109	1	52	11	bathroom	labelme_sfxiulhjbhlyiyt.tif	587732.578371	587732.836964	587733.577177	7.341620e-01	1	none	NaN	NaN
109	1	53	25	bathroom	sun_agyqfjcfkdcydepw.tif	587734.346794	587734.605381	587735.345593	7.508475e-01	15	none	NaN	NaN
109	1	54	16	bathroom	sun_acduarbnmmoglmiv.tif	587736.115213	587736.373799	587737.114159	7.174765e-01	6	none	NaN	NaN
109	1	55	21	bathroom	sun_aggnnqpdorgxpvce.tif	587737.883636	587738.142224	587738.882484	7.591903e-01	11	none	NaN	NaN
109	1	56	51	bathroom	sun_atstyziqcmkahyxk.tif	587739.652056	587739.910642	587740.650924	7.925613e-01	41	none	NaN	NaN
109	1	57	32	bathroom	sun_aleqenyvunhactkl.tif	587741.420471	587741.679062	587742.419404	7.925613e-01	22	none	NaN	NaN
109	1	58	33	bathroom	sun_aljolscmmzydegqp.tif	587743.188892	587743.447482	587744.187825	7.675330e-01	23	none	NaN	NaN
109	1	59	18	bathroom	sun_acgyywnybuveqsro.tif	587744.957314	587745.215905	587745.956167	7.091338e-01	8	none	NaN	NaN
109	1	60	36	bathroom	sun_ambriybtogmepttm.tif	587746.725735	587746.984320	587747.724611	7.842185e-01	26	none	NaN	NaN
109	1	61	13	bathroom	sun_aavhrsfjbserjtht.tif	587748.494153	587748.752742	587749.492997	8.509605e-01	3	none	NaN	NaN
109	1	62	56	bathroom	sun_awnqiikzaispgmwo.tif	587750.262574	587750.521162	587751.261356	7.758758e-01	46	37	587753.091502	0
109	1	63	14	bathroom	sun_abapwbhyhkfixyex.tif	587753.866148	587754.124734	587754.864949	6.590773e-01	4	none	NaN	NaN
109	1	64	45	bathroom	sun_apkxzenqapsujocq.tif	587755.634570	587755.893154	587756.633392	8.092468e-01	35	none	NaN	NaN
109	1	65	38	bathroom	sun_anhioqovhscjqqwb.tif	587757.402990	587757.661575	587758.401824	8.259323e-01	28	37	587759.179794	1
109	1	66	44	bathroom	sun_apkruvsevgegsdwp.tif	587759.955517	587760.214108	587760.954348	8.009040e-01	34	37	587761.643516	1
109	1	67	35	bathroom	sun_alotolagknyrgtsk.tif	587762.416294	587762.674879	587763.415267	6.674200e-01	25	none	NaN	NaN
109	1	68	55	bathroom	sun_avhrdrntsqrjzccq.tif	587764.184713	587764.443303	587765.183679	6.757628e-01	45	39	587766.563704	1
109	1	69	22	bathroom	sun_agguqiubmwhqqunb.tif	587767.337837	587767.596427	587768.336744	6.841055e-01	12	none	NaN	NaN
109	1	70	24	bathroom	sun_agrwbmhcpmfuwmsg.tif	587769.106259	587769.364847	587770.105228	7.425048e-01	14	none	NaN	NaN
109	1	71	47	bathroom	sun_apynckhmoftszqoq.tif	587770.874677	587771.133269	587771.873469	8.342750e-01	37	none	NaN	NaN
109	1	72	53	bathroom	sun_ausgutylgojavyoq.tif	587772.643098	587772.901687	587773.642061	7.591903e-01	43	none	NaN	NaN
109	1	73	15	bathroom	sun_abjtwfukuwddzted.tif	587774.411520	587774.670106	587775.410316	8.009040e-01	5	none	NaN	NaN
109	1	74	28	bathroom	sun_ahijqszoswveeyji.tif	587776.179937	587776.438527	587777.178853	7.258193e-01	18	none	NaN	NaN
109	1	75	26	bathroom	sun_ahaulkltgpkeeemi.tif	587777.948355	587778.206946	587778.947306	8.175895e-01	16	37	587779.683788	1
109	1	76	58	bathroom	sun_axxbkopsgyouuebh.tif	587780.459180	587780.717773	587781.458044	6.841055e-01	48	none	NaN	NaN
109	1	77	17	bathroom	sun_acegryoqftbzowsg.tif	587782.227599	587782.486188	587783.226490	6.841055e-01	7	37	587783.891675	1
109	1	78	54	bathroom	sun_auzqhkafidnkrwmo.tif	587784.663352	587784.921938	587785.662315	8.342750e-01	44	none	NaN	NaN
109	1	79	30	bathroom	sun_ajlawzvmubibwbpy.tif	587786.431768	587786.690356	587787.430610	7.174765e-01	20	none	NaN	NaN
109	1	80	19	bathroom	sun_aclfzgynxzxlbepz.tif	587788.200187	587788.458779	587789.199165	8.175895e-01	9	none	NaN	NaN
109	1	81	60	bathroom	sun_azqyogdvyhahyram.tif	587789.968611	587790.227198	587790.967491	7.258193e-01	50	none	NaN	NaN
109	1	82	50	bathroom	sun_aspsyogrekjtfozg.tif	587791.737032	587791.995622	587792.735923	7.758758e-01	40	none	NaN	NaN
109	1	83	42	bathroom	sun_apeeialkgkuxddgh.tif	587793.505450	587793.764037	587794.504373	7.007910e-01	32	none	NaN	NaN
109	1	84	49	bathroom	sun_asfwthctfqerjvxr.tif	587795.273869	587795.532458	587796.272713	7.675330e-01	39	none	NaN	NaN
109	1	85	27	bathroom	sun_ahcvzmoyaycdoftf.tif	587797.042291	587797.300877	587798.041085	7.007910e-01	17	none	NaN	NaN
109	1	86	12	bathroom	sun_aapitsgbtktqubfy.tif	587798.810713	587799.069299	587799.809671	7.258193e-01	2	none	NaN	NaN
109	1	87	23	bathroom	sun_aghyqhbptboemmoq.tif	587800.579131	587800.837722	587801.578051	6.507345e-01	13	39	587802.571764	1
109	1	88	20	bathroom	sun_afcoljnjfoxjtgja.tif	587803.348541	587803.607133	587804.347446	8.426178e-01	10	none	NaN	NaN
109	1	89	40	bathroom	sun_aofnryafpsjimzsb.tif	587805.116961	587805.375550	587806.115916	6.590773e-01	30	none	NaN	NaN
109	1	90	39	bathroom	sun_anryaplzeujmzfkd.tif	587806.885384	587807.143970	587807.884252	6.841055e-01	29	none	NaN	NaN
109	1	91	43	bathroom	sun_apjevzvycyhuqghb.tif	587808.653800	587808.912396	587809.652708	8.259323e-01	33	none	NaN	NaN
109	1	92	34	bathroom	sun_alkosphxlxwjwgjd.tif	587810.422221	587810.680814	587811.421101	6.674200e-01	24	none	NaN	NaN
109	1	93	41	bathroom	sun_aoybiabnpadelefl.tif	587812.190639	587812.449234	587813.189615	8.426178e-01	31	none	NaN	NaN
109	1	94	46	bathroom	sun_apmqjbnwghzuhhzh.tif	587813.959062	587814.217653	587814.957935	6.757628e-01	36	none	NaN	NaN
109	1	95	57	bathroom	sun_axldvoqbuvuggfmq.tif	587815.727483	587815.986073	587816.726438	8.509605e-01	47	none	NaN	NaN
109	1	96	31	bathroom	sun_akiytfaagpdsphgz.tif	587817.495904	587817.754492	587818.494869	7.508475e-01	21	37	587819.163895	1
109	1	97	37	bathroom	sun_amzlamotzwfkwjco.tif	587819.939996	587820.198585	587820.938812	7.091338e-01	27	none	NaN	NaN
109	1	98	29	bathroom	sun_ahqjwnzgolcaoidx.tif	587821.708414	587821.966999	587822.707265	7.675330e-01	19	none	NaN	NaN
109	1	99	52	bathroom	sun_aunuadmjocsddsrl.tif	587823.476834	587823.735420	587824.475643	7.925613e-01	42	none	NaN	NaN
109	1	100	48	bathroom	sun_aqrpegblszgcoujh.tif	587825.245252	587825.503846	587826.244165	6.674200e-01	38	none	NaN	NaN
109	2	1	62	kitchen	labelme_kxvouciolcpqplr.tif	587837.532438	587837.791022	587838.481326	8.259323e-01	52	none	NaN	NaN
109	2	2	82	kitchen	sun_aenotlpyftoioydp.tif	587839.250807	587839.509395	587840.199549	7.007910e-01	72	none	NaN	NaN
109	2	3	80	kitchen	sun_aegoxogugdkwpmpj.tif	587840.969176	587841.227766	587841.918047	8.259323e-01	70	none	NaN	NaN
109	2	4	84	kitchen	sun_aexklacwqwezaorf.tif	587842.687546	587842.946131	587843.636394	7.508475e-01	74	none	NaN	NaN
109	2	5	88	kitchen	sun_agubuxuukhzyzpdp.tif	587844.405916	587844.664511	587845.354670	7.425048e-01	78	none	NaN	NaN
109	2	6	85	kitchen	sun_afuyedyxivkhecmu.tif	587846.124290	587846.382877	587847.073146	7.925613e-01	75	37	587847.867739	1
109	2	7	73	kitchen	sun_abrcnpqqhmjwekyf.tif	587848.643454	587848.902041	587849.592354	7.591903e-01	63	none	NaN	NaN
109	2	8	99	kitchen	sun_akcjzhbbjlbogpdi.tif	587850.361821	587850.620412	587851.310743	7.258193e-01	89	none	NaN	NaN
109	2	9	75	kitchen	sun_acgtpgfybqjmzeyw.tif	587852.080193	587852.338785	587853.029091	7.591903e-01	65	none	NaN	NaN
109	2	10	92	kitchen	sun_ahpczsiumwwocjkv.tif	587853.798560	587854.057150	587854.747455	7.591903e-01	82	none	NaN	NaN
109	2	11	67	kitchen	sun_aarfiyshqohlwkmo.tif	587855.516935	587855.775530	587856.465673	7.508475e-01	57	37	587857.139771	1
109	2	12	89	kitchen	sun_agzzivivdpnawacl.tif	587857.910974	587858.169563	587858.859775	7.091338e-01	79	none	NaN	NaN
109	2	13	87	kitchen	sun_agorklincwxrdtga.tif	587859.629346	587859.887937	587860.578199	8.342750e-01	77	none	NaN	NaN
109	2	14	70	kitchen	sun_abdxkyyxwfskuaqb.tif	587861.347714	587861.606308	587862.296618	7.007910e-01	60	none	NaN	NaN
109	2	15	69	kitchen	sun_abdenxonkemggwsq.tif	587863.066084	587863.324669	587864.014863	6.507345e-01	59	none	NaN	NaN
109	2	16	66	kitchen	sun_aapllqyqlykszopd.tif	587864.784456	587865.043047	587865.733229	7.341620e-01	56	37	587867.003767	0
109	2	17	104	kitchen	sun_auticobqsbwgoppi.tif	587867.779092	587868.037681	587868.727907	8.009040e-01	94	none	NaN	NaN
109	2	18	90	kitchen	sun_ahdycvpopffkzzsu.tif	587869.497460	587869.756052	587870.446304	6.841055e-01	80	none	NaN	NaN
109	2	19	96	kitchen	sun_ajcbwwvdlsvjyzje.tif	587871.215835	587871.474417	587872.164749	6.924483e-01	86	none	NaN	NaN
109	2	20	65	kitchen	sun_aamedkxepzlwuxes.tif	587872.934202	587873.192793	587873.883119	7.091338e-01	55	none	NaN	NaN
109	2	21	106	kitchen	sun_awcpdzzznmweyyhv.tif	587874.652574	587874.911163	587875.601367	7.675330e-01	96	none	NaN	NaN
109	2	22	83	kitchen	sun_aeqdocilnnpuvuhx.tif	587876.370948	587876.629532	587877.319842	8.426178e-01	73	none	NaN	NaN
109	2	23	64	kitchen	sun_aadbddgrdsjugojn.tif	587878.089317	587878.347905	587879.038146	7.842185e-01	54	none	NaN	NaN
109	2	24	61	kitchen	labelme_brsyyvweiuaazfr.tif	587879.807685	587880.066271	587880.756477	7.174765e-01	51	none	NaN	NaN
109	2	25	107	kitchen	sun_axyyrmzcupyhlivc.tif	587881.526059	587881.784646	587882.474775	7.341620e-01	97	none	NaN	NaN
109	2	26	91	kitchen	sun_ahljzhgcdpomplvg.tif	587883.244425	587883.503014	587884.193154	6.590773e-01	81	none	NaN	NaN
109	2	27	94	kitchen	sun_ahywdevtimnqcsln.tif	587884.962796	587885.221386	587885.911631	7.508475e-01	84	none	NaN	NaN
109	2	28	78	kitchen	sun_adgqasybjyktddhj.tif	587886.681164	587886.939759	587887.630045	7.258193e-01	68	none	NaN	NaN
109	2	29	102	kitchen	sun_auaiucuqpdausiva.tif	587888.399541	587888.658124	587889.348467	6.924483e-01	92	none	NaN	NaN
109	2	30	95	kitchen	sun_aixorpehvfykdynp.tif	587890.117911	587890.376501	587891.066828	6.674200e-01	85	none	NaN	NaN
109	2	31	81	kitchen	sun_aehawpgmrlhlvcow.tif	587891.836278	587892.094865	587892.785023	7.007910e-01	71	39	587894.547824	1
109	2	32	74	kitchen	sun_acfmftudsenhrfhy.tif	587895.323068	587895.581661	587896.271904	8.342750e-01	64	37	587897.243786	1
109	2	33	72	kitchen	sun_abpwyqmlzafvklqo.tif	587898.017410	587898.275998	587898.966163	7.091338e-01	62	none	NaN	NaN
109	2	34	109	kitchen	sun_aypmqwcualkenuoe.tif	587899.735776	587899.994367	587900.684666	7.174765e-01	99	37	587901.395811	1
109	2	35	63	kitchen	labelme_rykdqxenmhulbdn.tif	587902.171527	587902.430112	587903.120276	7.758758e-01	53	none	NaN	NaN
109	2	36	105	kitchen	sun_avszsnwsbuqfgzbn.tif	587903.889892	587904.148485	587904.838811	7.091338e-01	95	none	NaN	NaN
109	2	37	98	kitchen	sun_akchetnepxlcxhsu.tif	587905.608263	587905.866856	587906.557090	8.092468e-01	88	none	NaN	NaN
109	2	38	86	kitchen	sun_aggjlwcdjsjcaemh.tif	587907.326640	587907.585226	587908.275519	6.674200e-01	76	none	NaN	NaN
109	2	39	68	kitchen	sun_aaxxjlsuzvqlgylf.tif	587909.045008	587909.303596	587909.993846	7.591903e-01	58	none	NaN	NaN
109	2	40	71	kitchen	sun_abftihopvusyfakt.tif	587910.763380	587911.021966	587911.712305	8.426178e-01	61	none	NaN	NaN
109	2	41	93	kitchen	sun_ahspylgoovwmwvgk.tif	587912.481751	587912.740337	587913.430567	7.675330e-01	83	39	587914.867930	1
109	2	42	100	kitchen	sun_amjjdeyrggfqgmom.tif	587915.643217	587915.901808	587916.592076	8.175895e-01	90	none	NaN	NaN
109	2	43	108	kitchen	sun_aymvwlarqodbwuoc.tif	587917.361584	587917.620175	587918.310403	6.757628e-01	98	none	NaN	NaN
109	2	44	76	kitchen	sun_acwjdupvyjsugpay.tif	587919.079899	587919.338546	587920.028789	7.842185e-01	66	none	NaN	NaN
109	2	45	97	kitchen	sun_ajkqhtgcbgpcwrwn.tif	587920.798329	587921.056915	587921.747221	7.758758e-01	87	none	NaN	NaN
109	2	46	79	kitchen	sun_admlmbcdswaszruo.tif	587922.516701	587922.775287	587923.465604	8.259323e-01	69	none	NaN	NaN
109	2	47	77	kitchen	sun_acxkpeoqbwcxfvip.tif	587924.235068	587924.493657	587925.183781	7.925613e-01	67	none	NaN	NaN
109	2	48	103	kitchen	sun_aunzlwrbjumxhwdj.tif	587925.953439	587926.212029	587926.902335	7.842185e-01	93	none	NaN	NaN
109	2	49	110	kitchen	sun_azmutvzbxypaceni.tif	587927.671811	587927.930401	587928.620664	8.009040e-01	100	none	NaN	NaN
109	2	50	101	kitchen	sun_aqeaevwwwjoqhzvl.tif	587929.390178	587929.648771	587930.339042	7.174765e-01	91	none	NaN	NaN
109	2	51	88	kitchen	sun_agubuxuukhzyzpdp.tif	587931.108548	587931.367139	587932.057288	8.175895e-01	78	none	NaN	NaN
109	2	52	92	kitchen	sun_ahpczsiumwwocjkv.tif	587932.826919	587933.085513	587933.775794	6.924483e-01	82	37	587935.283906	0
109	2	53	66	kitchen	sun_aapllqyqlykszopd.tif	587936.055120	587936.313710	587937.004037	8.092468e-01	56	none	NaN	NaN
109	2	54	102	kitchen	sun_auaiucuqpdausiva.tif	587937.773494	587938.032081	587938.722352	7.925613e-01	92	37	587939.419831	1
109	2	55	78	kitchen	sun_adgqasybjyktddhj.tif	587940.192552	587940.451146	587941.141322	7.925613e-01	68	none	NaN	NaN
109	2	56	68	kitchen	sun_aaxxjlsuzvqlgylf.tif	587941.910925	587942.169515	587942.859809	6.757628e-01	58	none	NaN	NaN
109	2	57	62	kitchen	labelme_kxvouciolcpqplr.tif	587943.629297	587943.887889	587944.578161	6.590773e-01	52	none	NaN	NaN
109	2	58	100	kitchen	sun_amjjdeyrggfqgmom.tif	587945.347670	587945.606257	587946.296513	6.924483e-01	90	none	NaN	NaN
109	2	59	74	kitchen	sun_acfmftudsenhrfhy.tif	587947.066036	587947.324630	587948.014947	7.174765e-01	64	none	NaN	NaN
109	2	60	109	kitchen	sun_aypmqwcualkenuoe.tif	587948.784408	587949.043002	587949.733161	8.426178e-01	99	none	NaN	NaN
109	2	61	105	kitchen	sun_avszsnwsbuqfgzbn.tif	587950.502780	587950.761374	587951.451541	7.591903e-01	95	none	NaN	NaN
109	2	62	67	kitchen	sun_aarfiyshqohlwkmo.tif	587952.221153	587952.479739	587953.170022	6.841055e-01	57	none	NaN	NaN
109	2	63	83	kitchen	sun_aeqdocilnnpuvuhx.tif	587953.939515	587954.198112	587954.888239	6.674200e-01	73	none	NaN	NaN
109	2	64	90	kitchen	sun_ahdycvpopffkzzsu.tif	587955.657892	587955.916478	587956.606690	6.757628e-01	80	none	NaN	NaN
109	2	65	75	kitchen	sun_acgtpgfybqjmzeyw.tif	587957.376263	587957.634852	587958.324991	7.758758e-01	65	none	NaN	NaN
109	2	66	101	kitchen	sun_aqeaevwwwjoqhzvl.tif	587959.094630	587959.353219	587960.043362	7.758758e-01	91	none	NaN	NaN
109	2	67	82	kitchen	sun_aenotlpyftoioydp.tif	587960.812998	587961.071588	587961.761816	6.841055e-01	72	37	587965.035947	0
109	2	68	97	kitchen	sun_ajkqhtgcbgpcwrwn.tif	587965.809621	587966.068213	587966.758533	7.007910e-01	87	none	NaN	NaN
109	2	69	77	kitchen	sun_acxkpeoqbwcxfvip.tif	587967.527995	587967.786584	587968.476829	7.341620e-01	67	none	NaN	NaN
109	2	70	63	kitchen	labelme_rykdqxenmhulbdn.tif	587969.246364	587969.504950	587970.195251	7.425048e-01	53	none	NaN	NaN
109	2	71	87	kitchen	sun_agorklincwxrdtga.tif	587970.964736	587971.223321	587971.913590	8.342750e-01	77	none	NaN	NaN
109	2	72	84	kitchen	sun_aexklacwqwezaorf.tif	587972.683103	587972.941691	587973.631856	7.675330e-01	74	none	NaN	NaN
109	2	73	94	kitchen	sun_ahywdevtimnqcsln.tif	587974.401478	587974.660064	587975.350296	6.924483e-01	84	37	587976.123849	1
109	2	74	65	kitchen	sun_aamedkxepzlwuxes.tif	587976.895613	587977.154205	587977.844490	8.509605e-01	55	none	NaN	NaN
109	2	75	96	kitchen	sun_ajcbwwvdlsvjyzje.tif	587978.613983	587978.872572	587979.562871	7.508475e-01	86	39	587980.483827	1
109	2	76	106	kitchen	sun_awcpdzzznmweyyhv.tif	587981.258271	587981.516865	587982.207117	8.009040e-01	96	none	NaN	NaN
109	2	77	80	kitchen	sun_aegoxogugdkwpmpj.tif	587982.976642	587983.235229	587983.925447	8.259323e-01	70	37	587984.563667	1
109	2	78	95	kitchen	sun_aixorpehvfykdynp.tif	587985.337320	587985.595903	587986.286104	7.425048e-01	85	none	NaN	NaN
109	2	79	81	kitchen	sun_aehawpgmrlhlvcow.tif	587987.055687	587987.314281	587988.004562	8.175895e-01	71	none	NaN	NaN
109	2	80	76	kitchen	sun_acwjdupvyjsugpay.tif	587988.774054	587989.032643	587989.722828	6.590773e-01	66	39	587990.684059	1
109	2	81	61	kitchen	labelme_brsyyvweiuaazfr.tif	587991.460054	587991.718644	587992.408927	8.092468e-01	51	none	NaN	NaN
109	2	82	98	kitchen	sun_akchetnepxlcxhsu.tif	587993.178428	587993.437014	587994.127173	8.009040e-01	88	none	NaN	NaN
109	2	83	91	kitchen	sun_ahljzhgcdpomplvg.tif	587994.896795	587995.155381	587995.845656	6.507345e-01	81	none	NaN	NaN
109	2	84	72	kitchen	sun_abpwyqmlzafvklqo.tif	587996.615167	587996.873753	587997.563887	6.590773e-01	62	none	NaN	NaN
109	2	85	107	kitchen	sun_axyyrmzcupyhlivc.tif	587998.333535	587998.592124	587999.282413	7.425048e-01	97	39	588000.459887	1
109	2	86	104	kitchen	sun_auticobqsbwgoppi.tif	588001.236410	588001.495004	588002.185179	6.841055e-01	94	none	NaN	NaN
109	2	87	108	kitchen	sun_aymvwlarqodbwuoc.tif	588002.954783	588003.213376	588003.903578	7.258193e-01	98	none	NaN	NaN
109	2	88	93	kitchen	sun_ahspylgoovwmwvgk.tif	588004.673154	588004.931744	588005.621908	8.175895e-01	83	none	NaN	NaN
109	2	89	86	kitchen	sun_aggjlwcdjsjcaemh.tif	588006.391522	588006.650116	588007.340313	8.175895e-01	76	none	NaN	NaN
109	2	90	103	kitchen	sun_aunzlwrbjumxhwdj.tif	588008.109892	588008.368483	588009.058732	6.507345e-01	93	none	NaN	NaN
109	2	91	73	kitchen	sun_abrcnpqqhmjwekyf.tif	588009.828267	588010.086854	588010.777129	7.341620e-01	63	none	NaN	NaN
109	2	92	89	kitchen	sun_agzzivivdpnawacl.tif	588011.546639	588011.805223	588012.495386	7.675330e-01	79	none	NaN	NaN
109	2	93	71	kitchen	sun_abftihopvusyfakt.tif	588013.265007	588013.523599	588014.213845	6.757628e-01	61	none	NaN	NaN
109	2	94	85	kitchen	sun_afuyedyxivkhecmu.tif	588014.983376	588015.241969	588015.932273	8.509605e-01	75	none	NaN	NaN
109	2	95	64	kitchen	sun_aadbddgrdsjugojn.tif	588016.701748	588016.960338	588017.650485	6.674200e-01	54	none	NaN	NaN
109	2	96	110	kitchen	sun_azmutvzbxypaceni.tif	588018.420117	588018.678708	588019.369027	8.426178e-01	100	none	NaN	NaN
109	2	97	70	kitchen	sun_abdxkyyxwfskuaqb.tif	588020.138488	588020.397074	588021.087213	8.342750e-01	60	none	NaN	NaN
109	2	98	99	kitchen	sun_akcjzhbbjlbogpdi.tif	588021.856857	588022.115450	588022.805773	7.842185e-01	89	none	NaN	NaN
109	2	99	79	kitchen	sun_admlmbcdswaszruo.tif	588023.575230	588023.833821	588024.524001	8.092468e-01	69	none	NaN	NaN
109	2	100	69	kitchen	sun_abdenxonkemggwsq.tif	588025.293598	588025.552184	588026.242402	7.258193e-01	59	none	NaN	NaN
109	3	1	27	bathroom	sun_ahcvzmoyaycdoftf.tif	588040.391904	588040.650491	588041.465808	8.259323e-01	17	none	NaN	NaN
109	3	2	21	bathroom	sun_aggnnqpdorgxpvce.tif	588042.235399	588042.493990	588043.309320	6.924483e-01	11	39	588044.268038	1
109	3	3	19	bathroom	sun_aclfzgynxzxlbepz.tif	588045.046518	588045.305108	588046.120567	8.259323e-01	9	none	NaN	NaN
109	3	4	46	bathroom	sun_apmqjbnwghzuhhzh.tif	588046.890030	588047.148592	588047.964057	7.091338e-01	36	none	NaN	NaN
109	3	5	17	bathroom	sun_acegryoqftbzowsg.tif	588048.733504	588048.992093	588049.807452	8.426178e-01	7	none	NaN	NaN
109	3	6	34	bathroom	sun_alkosphxlxwjwgjd.tif	588050.576995	588050.835592	588051.650950	7.258193e-01	24	none	NaN	NaN
109	3	7	18	bathroom	sun_acgyywnybuveqsro.tif	588052.420492	588052.679081	588053.494411	7.091338e-01	8	none	NaN	NaN
109	3	8	38	bathroom	sun_anhioqovhscjqqwb.tif	588054.263986	588054.522577	588055.337906	6.757628e-01	28	none	NaN	NaN
109	3	9	50	bathroom	sun_aspsyogrekjtfozg.tif	588056.107487	588056.366075	588057.181441	8.426178e-01	40	none	NaN	NaN
109	3	10	29	bathroom	sun_ahqjwnzgolcaoidx.tif	588057.950976	588058.209569	588059.024952	7.091338e-01	19	37	588059.827927	1
109	3	11	53	bathroom	sun_ausgutylgojavyoq.tif	588060.603603	588060.862195	588061.677536	6.590773e-01	43	none	NaN	NaN
109	3	12	59	bathroom	sun_axyrejkiiaqiurjk.tif	588062.447106	588062.705691	588063.520986	7.842185e-01	49	none	NaN	NaN
109	3	13	24	bathroom	sun_agrwbmhcpmfuwmsg.tif	588064.290600	588064.549189	588065.364596	8.009040e-01	14	none	NaN	NaN
109	3	14	58	bathroom	sun_axxbkopsgyouuebh.tif	588066.134094	588066.392680	588067.208138	7.508475e-01	48	none	NaN	NaN
109	3	15	31	bathroom	sun_akiytfaagpdsphgz.tif	588067.977585	588068.236176	588069.051620	6.841055e-01	21	none	NaN	NaN
109	3	16	13	bathroom	sun_aavhrsfjbserjtht.tif	588069.821082	588070.079667	588070.895121	7.591903e-01	3	none	NaN	NaN
109	3	17	54	bathroom	sun_auzqhkafidnkrwmo.tif	588071.664575	588071.923166	588072.738446	8.342750e-01	44	37	588073.436071	1
109	3	18	37	bathroom	sun_amzlamotzwfkwjco.tif	588074.208759	588074.467352	588075.282661	7.341620e-01	27	none	NaN	NaN
109	3	19	49	bathroom	sun_asfwthctfqerjvxr.tif	588076.052259	588076.310843	588077.126250	7.174765e-01	39	none	NaN	NaN
109	3	20	45	bathroom	sun_apkxzenqapsujocq.tif	588077.895751	588078.154343	588078.969628	6.757628e-01	35	none	NaN	NaN
109	3	21	39	bathroom	sun_anryaplzeujmzfkd.tif	588079.739246	588079.997836	588080.813269	6.507345e-01	29	none	NaN	NaN
109	3	22	51	bathroom	sun_atstyziqcmkahyxk.tif	588081.582739	588081.841329	588082.656669	7.675330e-01	41	none	NaN	NaN
109	3	23	30	bathroom	sun_ajlawzvmubibwbpy.tif	588083.426236	588083.684827	588084.500140	6.924483e-01	20	none	NaN	NaN
109	3	24	33	bathroom	sun_aljolscmmzydegqp.tif	588085.269731	588085.528321	588086.343640	7.842185e-01	23	none	NaN	NaN
109	3	25	20	bathroom	sun_afcoljnjfoxjtgja.tif	588087.113228	588087.371815	588088.187219	6.757628e-01	10	none	NaN	NaN
109	3	26	60	bathroom	sun_azqyogdvyhahyram.tif	588088.956718	588089.215310	588090.030661	8.092468e-01	50	none	NaN	NaN
109	3	27	22	bathroom	sun_agguqiubmwhqqunb.tif	588090.800215	588091.058802	588091.874266	7.675330e-01	12	39	588093.700064	1
109	3	28	55	bathroom	sun_avhrdrntsqrjzccq.tif	588094.470522	588094.729106	588095.544458	7.174765e-01	45	none	NaN	NaN
109	3	29	52	bathroom	sun_aunuadmjocsddsrl.tif	588096.314013	588096.572603	588097.388039	7.007910e-01	42	none	NaN	NaN
109	3	30	14	bathroom	sun_abapwbhyhkfixyex.tif	588098.157510	588098.416110	588099.231443	7.925613e-01	4	none	NaN	NaN
109	3	31	35	bathroom	sun_alotolagknyrgtsk.tif	588100.001001	588100.259592	588101.074863	7.758758e-01	25	39	588102.563950	1
109	3	32	11	bathroom	labelme_sfxiulhjbhlyiyt.tif	588103.337640	588103.596235	588104.411632	7.341620e-01	1	none	NaN	NaN
109	3	33	48	bathroom	sun_aqrpegblszgcoujh.tif	588105.181141	588105.439731	588106.255122	8.259323e-01	38	none	NaN	NaN
109	3	34	28	bathroom	sun_ahijqszoswveeyji.tif	588107.024633	588107.283226	588108.098603	7.508475e-01	18	39	588109.644090	1
109	3	35	57	bathroom	sun_axldvoqbuvuggfmq.tif	588110.419664	588110.678251	588111.493701	7.925613e-01	47	none	NaN	NaN
109	3	36	26	bathroom	sun_ahaulkltgpkeeemi.tif	588112.263158	588112.521750	588113.337038	7.258193e-01	16	none	NaN	NaN
109	3	37	23	bathroom	sun_aghyqhbptboemmoq.tif	588114.098315	588114.356901	588115.172305	8.175895e-01	13	none	NaN	NaN
109	3	38	47	bathroom	sun_apynckhmoftszqoq.tif	588115.941809	588116.200397	588117.015747	7.425048e-01	37	none	NaN	NaN
109	3	39	42	bathroom	sun_apeeialkgkuxddgh.tif	588117.785303	588118.043886	588118.859346	7.675330e-01	32	37	588121.172022	0
109	3	40	25	bathroom	sun_agyqfjcfkdcydepw.tif	588121.947762	588122.206351	588123.021674	6.841055e-01	15	none	NaN	NaN
109	3	41	32	bathroom	sun_aleqenyvunhactkl.tif	588123.791257	588124.049849	588124.865146	7.508475e-01	22	37	588126.812159	0
109	3	42	12	bathroom	sun_aapitsgbtktqubfy.tif	588127.586688	588127.845277	588128.660712	8.009040e-01	2	none	NaN	NaN
109	3	43	36	bathroom	sun_ambriybtogmepttm.tif	588129.430181	588129.688772	588130.504144	7.007910e-01	26	none	NaN	NaN
109	3	44	44	bathroom	sun_apkruvsevgegsdwp.tif	588131.273673	588131.532266	588132.347605	8.509605e-01	34	none	NaN	NaN
109	3	45	56	bathroom	sun_awnqiikzaispgmwo.tif	588133.117168	588133.375760	588134.191025	6.757628e-01	46	none	NaN	NaN
109	3	46	15	bathroom	sun_abjtwfukuwddzted.tif	588134.960665	588135.219249	588136.034698	8.426178e-01	5	none	NaN	NaN
109	3	47	16	bathroom	sun_acduarbnmmoglmiv.tif	588136.804162	588137.062751	588137.878163	6.924483e-01	6	none	NaN	NaN
109	3	48	43	bathroom	sun_apjevzvycyhuqghb.tif	588138.647656	588138.906244	588139.721529	7.758758e-01	33	none	NaN	NaN
109	3	49	40	bathroom	sun_aofnryafpsjimzsb.tif	588140.491144	588140.749741	588141.565195	6.674200e-01	30	none	NaN	NaN
109	3	50	41	bathroom	sun_aoybiabnpadelefl.tif	588142.334641	588142.593228	588143.408597	6.674200e-01	31	none	NaN	NaN
109	3	51	27	bathroom	sun_ahcvzmoyaycdoftf.tif	588144.178137	588144.436726	588145.252158	8.342750e-01	17	37	588145.996126	1
109	3	52	36	bathroom	sun_ambriybtogmepttm.tif	588146.772376	588147.030963	588147.846388	8.342750e-01	26	none	NaN	NaN
109	3	53	37	bathroom	sun_amzlamotzwfkwjco.tif	588148.615869	588148.874460	588149.689755	8.092468e-01	27	none	NaN	NaN
109	3	54	14	bathroom	sun_abapwbhyhkfixyex.tif	588150.459363	588150.717955	588151.533273	8.009040e-01	4	none	NaN	NaN
109	3	55	40	bathroom	sun_aofnryafpsjimzsb.tif	588152.302860	588152.561451	588153.376873	7.174765e-01	30	none	NaN	NaN
109	3	56	41	bathroom	sun_aoybiabnpadelefl.tif	588154.146351	588154.404943	588155.220256	6.590773e-01	31	none	NaN	NaN
109	3	57	39	bathroom	sun_anryaplzeujmzfkd.tif	588155.989845	588156.248436	588157.063696	6.841055e-01	29	none	NaN	NaN
109	3	58	43	bathroom	sun_apjevzvycyhuqghb.tif	588157.833344	588158.091933	588158.907254	6.924483e-01	33	none	NaN	NaN
109	3	59	60	bathroom	sun_azqyogdvyhahyram.tif	588159.676837	588159.935429	588160.750735	7.007910e-01	50	39	588161.900131	1
109	3	60	38	bathroom	sun_anhioqovhscjqqwb.tif	588162.671473	588162.930058	588163.745413	7.258193e-01	28	none	NaN	NaN
109	3	61	12	bathroom	sun_aapitsgbtktqubfy.tif	588164.514964	588164.773557	588165.588929	7.425048e-01	2	none	NaN	NaN
109	3	62	11	bathroom	labelme_sfxiulhjbhlyiyt.tif	588166.358461	588166.617048	588167.432410	7.758758e-01	1	none	NaN	NaN
109	3	63	30	bathroom	sun_ajlawzvmubibwbpy.tif	588168.201954	588168.460543	588169.275925	8.175895e-01	20	none	NaN	NaN
109	3	64	28	bathroom	sun_ahijqszoswveeyji.tif	588170.045452	588170.304042	588171.119397	6.507345e-01	18	none	NaN	NaN
109	3	65	48	bathroom	sun_aqrpegblszgcoujh.tif	588171.888936	588172.147529	588172.962852	7.508475e-01	38	none	NaN	NaN
109	3	66	25	bathroom	sun_agyqfjcfkdcydepw.tif	588173.732436	588173.991029	588174.806312	7.425048e-01	15	none	NaN	NaN
109	3	67	23	bathroom	sun_aghyqhbptboemmoq.tif	588175.575932	588175.834518	588176.649968	6.924483e-01	13	none	NaN	NaN
109	3	68	16	bathroom	sun_acduarbnmmoglmiv.tif	588177.419427	588177.678017	588178.493500	7.341620e-01	6	none	NaN	NaN
109	3	69	58	bathroom	sun_axxbkopsgyouuebh.tif	588179.262921	588179.521506	588180.336771	8.259323e-01	48	none	NaN	NaN
109	3	70	21	bathroom	sun_aggnnqpdorgxpvce.tif	588181.106415	588181.365002	588182.180341	8.175895e-01	11	none	NaN	NaN
109	3	71	26	bathroom	sun_ahaulkltgpkeeemi.tif	588182.949909	588183.208501	588184.023961	8.092468e-01	16	none	NaN	NaN
109	3	72	34	bathroom	sun_alkosphxlxwjwgjd.tif	588184.793405	588185.051992	588185.867388	6.507345e-01	24	none	NaN	NaN
109	3	73	52	bathroom	sun_aunuadmjocsddsrl.tif	588186.636895	588186.895490	588187.710842	6.674200e-01	42	none	NaN	NaN
109	3	74	15	bathroom	sun_abjtwfukuwddzted.tif	588188.480394	588188.738979	588189.554271	7.591903e-01	5	none	NaN	NaN
109	3	75	13	bathroom	sun_aavhrsfjbserjtht.tif	588190.323886	588190.582480	588191.397893	7.675330e-01	3	none	NaN	NaN
109	3	76	46	bathroom	sun_apmqjbnwghzuhhzh.tif	588192.167384	588192.425973	588193.241426	8.426178e-01	36	none	NaN	NaN
109	3	77	59	bathroom	sun_axyrejkiiaqiurjk.tif	588194.010874	588194.269466	588195.084838	7.925613e-01	49	none	NaN	NaN
109	3	78	42	bathroom	sun_apeeialkgkuxddgh.tif	588195.854368	588196.112960	588196.928311	7.842185e-01	32	none	NaN	NaN
109	3	79	24	bathroom	sun_agrwbmhcpmfuwmsg.tif	588197.697859	588197.956458	588198.771899	8.009040e-01	14	none	NaN	NaN
109	3	80	35	bathroom	sun_alotolagknyrgtsk.tif	588199.541357	588199.799945	588200.615282	7.174765e-01	25	37	588201.380073	1
109	3	81	57	bathroom	sun_axldvoqbuvuggfmq.tif	588202.152279	588202.410871	588203.226149	8.175895e-01	47	none	NaN	NaN
109	3	82	32	bathroom	sun_aleqenyvunhactkl.tif	588203.995774	588204.254365	588205.069695	7.425048e-01	22	none	NaN	NaN
109	3	83	55	bathroom	sun_avhrdrntsqrjzccq.tif	588205.839268	588206.097859	588206.913306	7.925613e-01	45	37	588207.604239	1
109	3	84	22	bathroom	sun_agguqiubmwhqqunb.tif	588208.375116	588208.633704	588209.449131	6.590773e-01	12	none	NaN	NaN
109	3	85	45	bathroom	sun_apkxzenqapsujocq.tif	588210.218609	588210.477196	588211.292564	7.341620e-01	35	none	NaN	NaN
109	3	86	20	bathroom	sun_afcoljnjfoxjtgja.tif	588212.062104	588212.320692	588213.136082	7.842185e-01	10	37	588214.228084	1
109	3	87	19	bathroom	sun_aclfzgynxzxlbepz.tif	588214.998350	588215.256935	588216.072225	7.591903e-01	9	none	NaN	NaN
109	3	88	31	bathroom	sun_akiytfaagpdsphgz.tif	588216.841843	588217.100433	588217.915879	7.591903e-01	21	none	NaN	NaN
109	3	89	47	bathroom	sun_apynckhmoftszqoq.tif	588218.685335	588218.943925	588219.759216	8.509605e-01	37	none	NaN	NaN
109	3	90	17	bathroom	sun_acegryoqftbzowsg.tif	588220.528833	588220.787419	588221.602868	6.841055e-01	7	none	NaN	NaN
109	3	91	33	bathroom	sun_aljolscmmzydegqp.tif	588222.372326	588222.630915	588223.446396	7.258193e-01	23	none	NaN	NaN
109	3	92	51	bathroom	sun_atstyziqcmkahyxk.tif	588224.215823	588224.474416	588225.289757	6.674200e-01	41	37	588226.004103	1
109	3	93	54	bathroom	sun_auzqhkafidnkrwmo.tif	588226.776694	588227.035284	588227.850627	8.175895e-01	44	none	NaN	NaN
109	3	94	18	bathroom	sun_acgyywnybuveqsro.tif	588228.620189	588228.878775	588229.694244	7.007910e-01	8	none	NaN	NaN
109	3	95	50	bathroom	sun_aspsyogrekjtfozg.tif	588230.463682	588230.722268	588231.537756	7.091338e-01	40	none	NaN	NaN
109	3	96	53	bathroom	sun_ausgutylgojavyoq.tif	588232.307179	588232.565764	588233.381064	7.758758e-01	43	none	NaN	NaN
109	3	97	56	bathroom	sun_awnqiikzaispgmwo.tif	588234.150669	588234.409261	588235.224736	8.092468e-01	46	37	588236.068165	1
109	3	98	49	bathroom	sun_asfwthctfqerjvxr.tif	588236.845011	588237.103597	588237.918966	7.591903e-01	39	none	NaN	NaN
109	3	99	44	bathroom	sun_apkruvsevgegsdwp.tif	588238.688503	588238.947095	588239.762515	6.590773e-01	34	none	NaN	NaN
109	3	100	29	bathroom	sun_ahqjwnzgolcaoidx.tif	588240.531996	588240.790589	588241.605915	8.342750e-01	19	none	NaN	NaN
109	4	1	68	kitchen	sun_aaxxjlsuzvqlgylf.tif	588259.942913	588260.201498	588260.900032	7.258193e-01	58	none	NaN	NaN
109	4	2	77	kitchen	sun_acxkpeoqbwcxfvip.tif	588261.669620	588261.928211	588262.626695	7.007910e-01	67	none	NaN	NaN
109	4	3	79	kitchen	sun_admlmbcdswaszruo.tif	588263.396332	588263.654928	588264.353422	8.175895e-01	69	none	NaN	NaN
109	4	4	86	kitchen	sun_aggjlwcdjsjcaemh.tif	588265.123048	588265.381642	588266.080101	7.091338e-01	76	none	NaN	NaN
109	4	5	94	kitchen	sun_ahywdevtimnqcsln.tif	588266.849757	588267.108346	588267.806951	7.007910e-01	84	none	NaN	NaN
109	4	6	95	kitchen	sun_aixorpehvfykdynp.tif	588268.576472	588268.835059	588269.533742	6.757628e-01	85	none	NaN	NaN
109	4	7	75	kitchen	sun_acgtpgfybqjmzeyw.tif	588270.303183	588270.561765	588271.260388	7.508475e-01	65	none	NaN	NaN
109	4	8	88	kitchen	sun_agubuxuukhzyzpdp.tif	588272.029893	588272.288480	588272.986947	6.590773e-01	78	none	NaN	NaN
109	4	9	85	kitchen	sun_afuyedyxivkhecmu.tif	588273.756605	588274.015196	588274.713771	7.842185e-01	75	37	588275.451986	1
109	4	10	104	kitchen	sun_auticobqsbwgoppi.tif	588276.225717	588276.484310	588277.182821	7.591903e-01	94	39	588278.148200	1
109	4	11	72	kitchen	sun_abpwyqmlzafvklqo.tif	588278.920063	588279.178648	588279.877222	7.925613e-01	62	none	NaN	NaN
109	4	12	66	kitchen	sun_aapllqyqlykszopd.tif	588280.646771	588280.905358	588281.603940	7.258193e-01	56	none	NaN	NaN
109	4	13	69	kitchen	sun_abdenxonkemggwsq.tif	588282.373478	588282.632069	588283.330546	8.092468e-01	59	39	588286.356310	1
109	4	14	108	kitchen	sun_aymvwlarqodbwuoc.tif	588287.128192	588287.386787	588288.085297	6.757628e-01	98	none	NaN	NaN
109	4	15	105	kitchen	sun_avszsnwsbuqfgzbn.tif	588288.854910	588289.113499	588289.812130	7.508475e-01	95	none	NaN	NaN
109	4	16	78	kitchen	sun_adgqasybjyktddhj.tif	588290.581621	588290.840204	588291.538749	8.009040e-01	68	none	NaN	NaN
109	4	17	101	kitchen	sun_aqeaevwwwjoqhzvl.tif	588292.308328	588292.566922	588293.265410	8.509605e-01	91	39	588294.588152	1
109	4	18	99	kitchen	sun_akcjzhbbjlbogpdi.tif	588295.361362	588295.619946	588296.318549	6.841055e-01	89	none	NaN	NaN
109	4	19	90	kitchen	sun_ahdycvpopffkzzsu.tif	588297.088070	588297.346656	588298.045155	7.425048e-01	80	none	NaN	NaN
109	4	20	70	kitchen	sun_abdxkyyxwfskuaqb.tif	588298.814778	588299.073373	588299.771947	8.342750e-01	60	none	NaN	NaN
109	4	21	81	kitchen	sun_aehawpgmrlhlvcow.tif	588300.541495	588300.800083	588301.498615	8.009040e-01	71	39	588302.868257	1
109	4	22	106	kitchen	sun_awcpdzzznmweyyhv.tif	588303.644571	588303.903161	588304.601843	8.092468e-01	96	none	NaN	NaN
109	4	23	93	kitchen	sun_ahspylgoovwmwvgk.tif	588305.371283	588305.629877	588306.328437	6.507345e-01	83	none	NaN	NaN
109	4	24	97	kitchen	sun_ajkqhtgcbgpcwrwn.tif	588307.097994	588307.356585	588308.055181	7.174765e-01	87	none	NaN	NaN
109	4	25	91	kitchen	sun_ahljzhgcdpomplvg.tif	588308.824709	588309.083295	588309.781915	7.258193e-01	81	none	NaN	NaN
109	4	26	96	kitchen	sun_ajcbwwvdlsvjyzje.tif	588310.551415	588310.810008	588311.508543	8.092468e-01	86	none	NaN	NaN
109	4	27	62	kitchen	labelme_kxvouciolcpqplr.tif	588312.278132	588312.536721	588313.235388	7.758758e-01	52	none	NaN	NaN
109	4	28	109	kitchen	sun_aypmqwcualkenuoe.tif	588314.004838	588314.263431	588314.961985	7.758758e-01	99	37	588315.804136	1
109	4	29	76	kitchen	sun_acwjdupvyjsugpay.tif	588316.582396	588316.840992	588317.539603	8.092468e-01	66	none	NaN	NaN
109	4	30	87	kitchen	sun_agorklincwxrdtga.tif	588318.309106	588318.567696	588319.266346	8.426178e-01	77	none	NaN	NaN
109	4	31	102	kitchen	sun_auaiucuqpdausiva.tif	588320.035823	588320.294413	588320.993072	8.342750e-01	92	none	NaN	NaN
109	4	32	110	kitchen	sun_azmutvzbxypaceni.tif	588321.762532	588322.021121	588322.719769	7.675330e-01	100	39	588324.308220	1
109	4	33	98	kitchen	sun_akchetnepxlcxhsu.tif	588325.082489	588325.341081	588326.039584	6.674200e-01	88	none	NaN	NaN
109	4	34	100	kitchen	sun_amjjdeyrggfqgmom.tif	588326.809207	588327.067791	588327.766417	7.341620e-01	90	37	588328.444120	1
109	4	35	107	kitchen	sun_axyyrmzcupyhlivc.tif	588329.219925	588329.478514	588330.177094	7.675330e-01	97	none	NaN	NaN
109	4	36	65	kitchen	sun_aamedkxepzlwuxes.tif	588330.946637	588331.205228	588331.903889	8.175895e-01	55	none	NaN	NaN
109	4	37	64	kitchen	sun_aadbddgrdsjugojn.tif	588332.673351	588332.931940	588333.630564	7.341620e-01	54	37	588334.220204	1
109	4	38	89	kitchen	sun_agzzivivdpnawacl.tif	588334.992318	588335.250903	588335.949533	8.426178e-01	79	none	NaN	NaN
109	4	39	103	kitchen	sun_aunzlwrbjumxhwdj.tif	588336.719027	588336.977608	588337.676252	6.841055e-01	93	none	NaN	NaN
109	4	40	71	kitchen	sun_abftihopvusyfakt.tif	588338.445740	588338.704332	588339.402848	7.425048e-01	61	none	NaN	NaN
109	4	41	83	kitchen	sun_aeqdocilnnpuvuhx.tif	588340.172454	588340.431044	588341.129534	6.507345e-01	73	none	NaN	NaN
109	4	42	73	kitchen	sun_abrcnpqqhmjwekyf.tif	588341.899168	588342.157756	588342.856394	6.507345e-01	63	none	NaN	NaN
109	4	43	84	kitchen	sun_aexklacwqwezaorf.tif	588343.625877	588343.884462	588344.582988	7.174765e-01	74	none	NaN	NaN
109	4	44	92	kitchen	sun_ahpczsiumwwocjkv.tif	588345.352588	588345.611175	588346.309792	7.675330e-01	82	none	NaN	NaN
109	4	45	82	kitchen	sun_aenotlpyftoioydp.tif	588347.079298	588347.337891	588348.036452	8.175895e-01	72	39	588349.276444	1
109	4	46	80	kitchen	sun_aegoxogugdkwpmpj.tif	588350.048910	588350.307500	588351.006144	6.924483e-01	70	none	NaN	NaN
109	4	47	61	kitchen	labelme_brsyyvweiuaazfr.tif	588351.775621	588352.034209	588352.732719	7.091338e-01	51	none	NaN	NaN
109	4	48	63	kitchen	labelme_rykdqxenmhulbdn.tif	588353.502333	588353.760918	588354.459447	8.175895e-01	53	37	588355.108145	1
109	4	49	67	kitchen	sun_aarfiyshqohlwkmo.tif	588355.879691	588356.138281	588356.836817	7.007910e-01	57	none	NaN	NaN
109	4	50	74	kitchen	sun_acfmftudsenhrfhy.tif	588357.606403	588357.864995	588358.563523	7.425048e-01	64	none	NaN	NaN
109	4	51	91	kitchen	sun_ahljzhgcdpomplvg.tif	588359.333112	588359.591702	588360.290348	7.925613e-01	81	none	NaN	NaN
109	4	52	85	kitchen	sun_afuyedyxivkhecmu.tif	588361.059828	588361.318418	588362.017058	8.259323e-01	75	none	NaN	NaN
109	4	53	78	kitchen	sun_adgqasybjyktddhj.tif	588362.786540	588363.045132	588363.743780	6.757628e-01	68	none	NaN	NaN
109	4	54	92	kitchen	sun_ahpczsiumwwocjkv.tif	588364.513249	588364.771842	588365.470361	6.590773e-01	82	none	NaN	NaN
109	4	55	87	kitchen	sun_agorklincwxrdtga.tif	588366.239967	588366.498554	588367.197028	8.259323e-01	77	none	NaN	NaN
109	4	56	102	kitchen	sun_auaiucuqpdausiva.tif	588367.966672	588368.225264	588368.923929	7.258193e-01	92	none	NaN	NaN
109	4	57	66	kitchen	sun_aapllqyqlykszopd.tif	588369.693389	588369.951978	588370.650577	8.009040e-01	56	39	588373.148268	1
109	4	58	106	kitchen	sun_awcpdzzznmweyyhv.tif	588373.922580	588374.181171	588374.879738	7.091338e-01	96	none	NaN	NaN
109	4	59	64	kitchen	sun_aadbddgrdsjugojn.tif	588375.649291	588375.907881	588376.606376	7.091338e-01	54	none	NaN	NaN
109	4	60	80	kitchen	sun_aegoxogugdkwpmpj.tif	588377.376003	588377.634592	588378.333095	6.674200e-01	70	none	NaN	NaN
109	4	61	73	kitchen	sun_abrcnpqqhmjwekyf.tif	588379.102718	588379.361306	588380.059783	7.675330e-01	63	none	NaN	NaN
109	4	62	105	kitchen	sun_avszsnwsbuqfgzbn.tif	588380.829427	588381.088019	588381.786514	7.425048e-01	95	none	NaN	NaN
109	4	63	62	kitchen	labelme_kxvouciolcpqplr.tif	588382.556143	588382.814730	588383.513344	7.174765e-01	52	none	NaN	NaN
109	4	64	89	kitchen	sun_agzzivivdpnawacl.tif	588384.282855	588384.541440	588385.240060	6.674200e-01	79	none	NaN	NaN
109	4	65	103	kitchen	sun_aunzlwrbjumxhwdj.tif	588386.009565	588386.268157	588386.966663	8.259323e-01	93	37	588387.532282	1
109	4	66	108	kitchen	sun_aymvwlarqodbwuoc.tif	588388.303505	588388.562092	588389.260689	8.426178e-01	98	none	NaN	NaN
109	4	67	72	kitchen	sun_abpwyqmlzafvklqo.tif	588390.030215	588390.288808	588390.987419	7.591903e-01	62	none	NaN	NaN
109	4	68	70	kitchen	sun_abdxkyyxwfskuaqb.tif	588391.756930	588392.015516	588392.714016	6.924483e-01	60	none	NaN	NaN
109	4	69	68	kitchen	sun_aaxxjlsuzvqlgylf.tif	588393.483639	588393.742231	588394.440800	6.757628e-01	58	37	588395.044379	1
109	4	70	110	kitchen	sun_azmutvzbxypaceni.tif	588395.819284	588396.077876	588396.776416	7.508475e-01	100	none	NaN	NaN
109	4	71	107	kitchen	sun_axyyrmzcupyhlivc.tif	588397.546001	588397.804592	588398.503244	6.924483e-01	97	none	NaN	NaN
109	4	72	97	kitchen	sun_ajkqhtgcbgpcwrwn.tif	588399.272712	588399.531307	588400.229962	7.341620e-01	87	none	NaN	NaN
109	4	73	65	kitchen	sun_aamedkxepzlwuxes.tif	588400.999426	588401.258016	588401.956514	7.591903e-01	55	39	588403.244252	1
109	4	74	99	kitchen	sun_akcjzhbbjlbogpdi.tif	588404.019086	588404.277676	588404.976354	6.841055e-01	89	none	NaN	NaN
109	4	75	94	kitchen	sun_ahywdevtimnqcsln.tif	588405.745799	588406.004383	588406.702973	7.842185e-01	84	none	NaN	NaN
109	4	76	83	kitchen	sun_aeqdocilnnpuvuhx.tif	588407.472511	588407.731100	588408.429702	8.342750e-01	73	none	NaN	NaN
109	4	77	86	kitchen	sun_aggjlwcdjsjcaemh.tif	588409.199223	588409.457810	588410.156298	6.674200e-01	76	none	NaN	NaN
109	4	78	95	kitchen	sun_aixorpehvfykdynp.tif	588410.925930	588411.184521	588411.883053	7.591903e-01	85	none	NaN	NaN
109	4	79	74	kitchen	sun_acfmftudsenhrfhy.tif	588412.652646	588412.911233	588413.609902	7.591903e-01	64	none	NaN	NaN
109	4	80	77	kitchen	sun_acxkpeoqbwcxfvip.tif	588414.379357	588414.637944	588415.336611	7.758758e-01	67	none	NaN	NaN
109	4	81	79	kitchen	sun_admlmbcdswaszruo.tif	588416.106069	588416.364661	588417.063155	7.925613e-01	69	none	NaN	NaN
109	4	82	84	kitchen	sun_aexklacwqwezaorf.tif	588417.832772	588418.091369	588418.790006	8.509605e-01	74	none	NaN	NaN
109	4	83	88	kitchen	sun_agubuxuukhzyzpdp.tif	588419.559493	588419.818084	588420.516726	7.925613e-01	78	none	NaN	NaN
109	4	84	109	kitchen	sun_aypmqwcualkenuoe.tif	588421.286203	588421.544797	588422.243266	8.426178e-01	99	none	NaN	NaN
109	4	85	63	kitchen	labelme_rykdqxenmhulbdn.tif	588423.012920	588423.271508	588423.970103	6.590773e-01	53	none	NaN	NaN
109	4	86	101	kitchen	sun_aqeaevwwwjoqhzvl.tif	588424.739629	588424.998217	588425.696786	8.342750e-01	91	none	NaN	NaN
109	4	87	93	kitchen	sun_ahspylgoovwmwvgk.tif	588426.466339	588426.724930	588427.423546	7.842185e-01	83	none	NaN	NaN
109	4	88	81	kitchen	sun_aehawpgmrlhlvcow.tif	588428.193055	588428.451642	588429.150324	7.341620e-01	71	none	NaN	NaN
109	4	89	90	kitchen	sun_ahdycvpopffkzzsu.tif	588429.919765	588430.178351	588430.877031	8.259323e-01	80	none	NaN	NaN
109	4	90	98	kitchen	sun_akchetnepxlcxhsu.tif	588431.646476	588431.905066	588432.603633	7.758758e-01	88	none	NaN	NaN
109	4	91	69	kitchen	sun_abdenxonkemggwsq.tif	588433.373185	588433.631782	588434.330372	6.924483e-01	59	none	NaN	NaN
109	4	92	96	kitchen	sun_ajcbwwvdlsvjyzje.tif	588435.099900	588435.358489	588436.057113	6.841055e-01	86	none	NaN	NaN
109	4	93	75	kitchen	sun_acgtpgfybqjmzeyw.tif	588436.826612	588437.085202	588437.783694	8.175895e-01	65	none	NaN	NaN
109	4	94	76	kitchen	sun_acwjdupvyjsugpay.tif	588438.553323	588438.811918	588439.510535	7.174765e-01	66	none	NaN	NaN
109	4	95	104	kitchen	sun_auticobqsbwgoppi.tif	588440.280034	588440.538623	588441.237253	8.009040e-01	94	none	NaN	NaN
109	4	96	82	kitchen	sun_aenotlpyftoioydp.tif	588442.006749	588442.265334	588442.963813	7.842185e-01	72	none	NaN	NaN
109	4	97	61	kitchen	labelme_brsyyvweiuaazfr.tif	588443.733431	588443.992053	588444.690524	7.007910e-01	51	none	NaN	NaN
109	4	98	71	kitchen	sun_abftihopvusyfakt.tif	588445.460173	588445.718763	588446.417363	6.590773e-01	61	none	NaN	NaN
109	4	99	67	kitchen	sun_aarfiyshqohlwkmo.tif	588447.186886	588447.445477	588448.143950	6.924483e-01	57	none	NaN	NaN
109	4	100	100	kitchen	sun_amjjdeyrggfqgmom.tif	588448.913597	588449.172187	588449.870722	7.508475e-01	90	none	NaN	NaN
109	5	1	47	bathroom	sun_apynckhmoftszqoq.tif	588477.567009	588477.825591	588478.532438	7.591903e-01	37	none	NaN	NaN
109	5	2	55	bathroom	sun_avhrdrntsqrjzccq.tif	588479.302058	588479.560644	588480.267642	6.507345e-01	45	39	588481.148342	1
109	5	3	45	bathroom	sun_apkxzenqapsujocq.tif	588481.921319	588482.179915	588482.886896	7.425048e-01	35	none	NaN	NaN
109	5	4	41	bathroom	sun_aoybiabnpadelefl.tif	588483.656374	588483.914965	588484.621832	7.091338e-01	31	none	NaN	NaN
109	5	5	21	bathroom	sun_aggnnqpdorgxpvce.tif	588485.391430	588485.650022	588486.357042	7.174765e-01	11	none	NaN	NaN
109	5	6	36	bathroom	sun_ambriybtogmepttm.tif	588487.126490	588487.385068	588488.091995	8.509605e-01	26	none	NaN	NaN
109	5	7	24	bathroom	sun_agrwbmhcpmfuwmsg.tif	588488.861537	588489.120126	588489.827113	6.757628e-01	14	none	NaN	NaN
109	5	8	37	bathroom	sun_amzlamotzwfkwjco.tif	588490.596587	588490.855179	588491.562021	7.007910e-01	27	none	NaN	NaN
109	5	9	20	bathroom	sun_afcoljnjfoxjtgja.tif	588492.331643	588492.590226	588493.297156	7.258193e-01	10	none	NaN	NaN
109	5	10	40	bathroom	sun_aofnryafpsjimzsb.tif	588494.066694	588494.325288	588495.032259	7.508475e-01	30	none	NaN	NaN
109	5	11	42	bathroom	sun_apeeialkgkuxddgh.tif	588495.801751	588496.060338	588496.767181	8.092468e-01	32	none	NaN	NaN
109	5	12	13	bathroom	sun_aavhrsfjbserjtht.tif	588497.536803	588497.795392	588498.502344	8.175895e-01	3	none	NaN	NaN
109	5	13	11	bathroom	labelme_sfxiulhjbhlyiyt.tif	588499.271860	588499.530443	588500.237298	7.258193e-01	1	none	NaN	NaN
109	5	14	34	bathroom	sun_alkosphxlxwjwgjd.tif	588501.006911	588501.265500	588501.972456	6.590773e-01	24	37	588502.700306	1
109	5	15	51	bathroom	sun_atstyziqcmkahyxk.tif	588503.476023	588503.734614	588504.441544	7.258193e-01	41	39	588505.860175	1
109	5	16	32	bathroom	sun_aleqenyvunhactkl.tif	588506.637490	588506.896082	588507.602990	7.842185e-01	22	none	NaN	NaN
109	5	17	26	bathroom	sun_ahaulkltgpkeeemi.tif	588508.372547	588508.631138	588509.338030	7.925613e-01	16	none	NaN	NaN
109	5	18	33	bathroom	sun_aljolscmmzydegqp.tif	588510.107602	588510.366189	588511.073108	7.007910e-01	23	37	588511.764296	1
109	5	19	28	bathroom	sun_ahijqszoswveeyji.tif	588512.535005	588512.793594	588513.500582	7.007910e-01	18	none	NaN	NaN
109	5	20	19	bathroom	sun_aclfzgynxzxlbepz.tif	588514.270058	588514.528645	588515.235639	7.591903e-01	9	none	NaN	NaN
109	5	21	35	bathroom	sun_alotolagknyrgtsk.tif	588516.005114	588516.263701	588516.970613	7.174765e-01	25	none	NaN	NaN
109	5	22	58	bathroom	sun_axxbkopsgyouuebh.tif	588517.740171	588517.998755	588518.705740	8.509605e-01	48	none	NaN	NaN
109	5	23	27	bathroom	sun_ahcvzmoyaycdoftf.tif	588519.475219	588519.733809	588520.440621	7.174765e-01	17	none	NaN	NaN
109	5	24	23	bathroom	sun_aghyqhbptboemmoq.tif	588521.210275	588521.468868	588522.175686	8.092468e-01	13	none	NaN	NaN
109	5	25	56	bathroom	sun_awnqiikzaispgmwo.tif	588522.945330	588523.203916	588523.910817	8.175895e-01	46	none	NaN	NaN
109	5	26	15	bathroom	sun_abjtwfukuwddzted.tif	588524.680379	588524.938966	588525.645806	7.425048e-01	5	none	NaN	NaN
109	5	27	48	bathroom	sun_aqrpegblszgcoujh.tif	588526.415433	588526.674026	588527.380845	8.426178e-01	38	none	NaN	NaN
109	5	28	18	bathroom	sun_acgyywnybuveqsro.tif	588528.150484	588528.409076	588529.116086	8.175895e-01	8	none	NaN	NaN
109	5	29	60	bathroom	sun_azqyogdvyhahyram.tif	588529.885538	588530.144131	588530.851036	8.009040e-01	50	none	NaN	NaN
109	5	30	46	bathroom	sun_apmqjbnwghzuhhzh.tif	588531.620594	588531.879185	588532.586037	6.757628e-01	36	none	NaN	NaN
109	5	31	30	bathroom	sun_ajlawzvmubibwbpy.tif	588533.355648	588533.614238	588534.321092	6.590773e-01	20	none	NaN	NaN
109	5	32	31	bathroom	sun_akiytfaagpdsphgz.tif	588535.090704	588535.349295	588536.056174	8.426178e-01	21	none	NaN	NaN
109	5	33	16	bathroom	sun_acduarbnmmoglmiv.tif	588536.825757	588537.084348	588537.791282	6.674200e-01	6	none	NaN	NaN
109	5	34	29	bathroom	sun_ahqjwnzgolcaoidx.tif	588538.560822	588538.819397	588539.526363	7.091338e-01	19	39	588540.516561	1
109	5	35	49	bathroom	sun_asfwthctfqerjvxr.tif	588541.288513	588541.547106	588542.254104	7.675330e-01	39	none	NaN	NaN
109	5	36	43	bathroom	sun_apjevzvycyhuqghb.tif	588543.023568	588543.282159	588543.989151	8.009040e-01	33	none	NaN	NaN
109	5	37	22	bathroom	sun_agguqiubmwhqqunb.tif	588544.758623	588545.017212	588545.724048	7.007910e-01	12	none	NaN	NaN
109	5	38	17	bathroom	sun_acegryoqftbzowsg.tif	588546.493670	588546.752268	588547.459188	6.674200e-01	7	none	NaN	NaN
109	5	39	44	bathroom	sun_apkruvsevgegsdwp.tif	588548.228732	588548.487321	588549.194175	7.758758e-01	34	39	588550.300376	1
109	5	40	52	bathroom	sun_aunuadmjocsddsrl.tif	588551.073216	588551.331799	588552.038646	8.009040e-01	42	none	NaN	NaN
109	5	41	59	bathroom	sun_axyrejkiiaqiurjk.tif	588552.808269	588553.066859	588553.773788	8.009040e-01	49	none	NaN	NaN
109	5	42	53	bathroom	sun_ausgutylgojavyoq.tif	588554.543322	588554.801915	588555.508923	7.091338e-01	43	none	NaN	NaN
109	5	43	12	bathroom	sun_aapitsgbtktqubfy.tif	588556.278371	588556.536966	588557.243811	6.590773e-01	2	none	NaN	NaN
109	5	44	25	bathroom	sun_agyqfjcfkdcydepw.tif	588558.013425	588558.272017	588558.978920	7.675330e-01	15	none	NaN	NaN
109	5	45	14	bathroom	sun_abapwbhyhkfixyex.tif	588559.748484	588560.007074	588560.714099	7.591903e-01	4	none	NaN	NaN
109	5	46	54	bathroom	sun_auzqhkafidnkrwmo.tif	588561.483538	588561.742129	588562.449114	8.092468e-01	44	none	NaN	NaN
109	5	47	39	bathroom	sun_anryaplzeujmzfkd.tif	588563.218586	588563.477180	588564.184076	7.842185e-01	29	none	NaN	NaN
109	5	48	38	bathroom	sun_anhioqovhscjqqwb.tif	588564.953642	588565.212229	588565.919135	6.757628e-01	28	none	NaN	NaN
109	5	49	57	bathroom	sun_axldvoqbuvuggfmq.tif	588566.688699	588566.947288	588567.654141	7.758758e-01	47	none	NaN	NaN
109	5	50	50	bathroom	sun_aspsyogrekjtfozg.tif	588568.423748	588568.682341	588569.389151	8.092468e-01	40	none	NaN	NaN
109	5	51	50	bathroom	sun_aspsyogrekjtfozg.tif	588570.158807	588570.417393	588571.124306	7.675330e-01	40	none	NaN	NaN
109	5	52	58	bathroom	sun_axxbkopsgyouuebh.tif	588571.893858	588572.152448	588572.859293	8.259323e-01	48	none	NaN	NaN
109	5	53	13	bathroom	sun_aavhrsfjbserjtht.tif	588573.628910	588573.887504	588574.594383	8.259323e-01	3	none	NaN	NaN
109	5	54	28	bathroom	sun_ahijqszoswveeyji.tif	588575.363962	588575.622555	588576.329393	7.425048e-01	18	none	NaN	NaN
109	5	55	31	bathroom	sun_akiytfaagpdsphgz.tif	588577.099016	588577.357607	588578.064568	7.591903e-01	21	none	NaN	NaN
109	5	56	14	bathroom	sun_abapwbhyhkfixyex.tif	588578.834073	588579.092665	588579.799494	8.342750e-01	4	none	NaN	NaN
109	5	57	26	bathroom	sun_ahaulkltgpkeeemi.tif	588580.569130	588580.827717	588581.534640	7.341620e-01	16	none	NaN	NaN
109	5	58	45	bathroom	sun_apkxzenqapsujocq.tif	588582.304181	588582.562772	588583.269671	8.175895e-01	35	none	NaN	NaN
109	5	59	52	bathroom	sun_aunuadmjocsddsrl.tif	588584.039232	588584.297823	588585.004674	7.842185e-01	42	none	NaN	NaN
109	5	60	15	bathroom	sun_abjtwfukuwddzted.tif	588585.774288	588586.032874	588586.739826	8.426178e-01	5	none	NaN	NaN
109	5	61	42	bathroom	sun_apeeialkgkuxddgh.tif	588587.509338	588587.767930	588588.474927	8.342750e-01	32	none	NaN	NaN
109	5	62	32	bathroom	sun_aleqenyvunhactkl.tif	588589.244391	588589.502982	588590.209817	8.342750e-01	22	none	NaN	NaN
109	5	63	34	bathroom	sun_alkosphxlxwjwgjd.tif	588590.979445	588591.238039	588591.945058	7.758758e-01	24	none	NaN	NaN
109	5	64	16	bathroom	sun_acduarbnmmoglmiv.tif	588592.714504	588592.973091	588593.680052	8.259323e-01	6	none	NaN	NaN
109	5	65	44	bathroom	sun_apkruvsevgegsdwp.tif	588594.449555	588594.708143	588595.415096	7.591903e-01	34	none	NaN	NaN
109	5	66	36	bathroom	sun_ambriybtogmepttm.tif	588596.184609	588596.443197	588597.150007	7.508475e-01	26	none	NaN	NaN
109	5	67	27	bathroom	sun_ahcvzmoyaycdoftf.tif	588597.919660	588598.178253	588598.885071	6.841055e-01	17	none	NaN	NaN
109	5	68	33	bathroom	sun_aljolscmmzydegqp.tif	588599.654712	588599.913304	588600.620237	8.175895e-01	23	39	588603.724568	1
109	5	69	49	bathroom	sun_asfwthctfqerjvxr.tif	588604.501188	588604.759774	588605.466734	6.924483e-01	39	none	NaN	NaN
109	5	70	46	bathroom	sun_apmqjbnwghzuhhzh.tif	588606.236238	588606.494825	588607.201748	6.590773e-01	36	39	588608.748503	1
109	5	71	60	bathroom	sun_azqyogdvyhahyram.tif	588609.522829	588609.781423	588610.488392	6.924483e-01	50	37	588611.340662	1
109	5	72	56	bathroom	sun_awnqiikzaispgmwo.tif	588612.117068	588612.375662	588613.082538	8.342750e-01	46	none	NaN	NaN
109	5	73	53	bathroom	sun_ausgutylgojavyoq.tif	588613.852124	588614.110712	588614.817643	7.925613e-01	43	none	NaN	NaN
109	5	74	12	bathroom	sun_aapitsgbtktqubfy.tif	588615.587178	588615.845768	588616.552772	7.925613e-01	2	none	NaN	NaN
109	5	75	38	bathroom	sun_anhioqovhscjqqwb.tif	588617.322231	588617.580822	588618.287841	6.924483e-01	28	none	NaN	NaN
109	5	76	47	bathroom	sun_apynckhmoftszqoq.tif	588619.057287	588619.315876	588620.022683	6.924483e-01	37	none	NaN	NaN
109	5	77	55	bathroom	sun_avhrdrntsqrjzccq.tif	588620.792339	588621.050927	588621.757903	6.841055e-01	45	none	NaN	NaN
109	5	78	29	bathroom	sun_ahqjwnzgolcaoidx.tif	588622.527387	588622.785985	588623.492901	8.426178e-01	19	none	NaN	NaN
109	5	79	20	bathroom	sun_afcoljnjfoxjtgja.tif	588624.262445	588624.521035	588625.227883	7.842185e-01	10	37	588625.972586	1
109	5	80	59	bathroom	sun_axyrejkiiaqiurjk.tif	588626.748244	588627.006835	588627.713821	6.507345e-01	49	none	NaN	NaN
109	5	81	39	bathroom	sun_anryaplzeujmzfkd.tif	588628.483299	588628.741887	588629.448753	7.258193e-01	29	none	NaN	NaN
109	5	82	18	bathroom	sun_acgyywnybuveqsro.tif	588630.218350	588630.476944	588631.183952	7.341620e-01	8	none	NaN	NaN
109	5	83	21	bathroom	sun_aggnnqpdorgxpvce.tif	588631.953403	588632.211990	588632.918839	7.091338e-01	11	none	NaN	NaN
109	5	84	37	bathroom	sun_amzlamotzwfkwjco.tif	588633.688461	588633.947050	588634.653895	7.174765e-01	27	39	588635.812416	1
109	5	85	11	bathroom	labelme_sfxiulhjbhlyiyt.tif	588636.582992	588636.841586	588637.548480	7.341620e-01	1	37	588638.284739	1
109	5	86	35	bathroom	sun_alotolagknyrgtsk.tif	588639.060447	588639.319037	588640.027058	7.508475e-01	25	37	588640.612594	1
109	5	87	30	bathroom	sun_ajlawzvmubibwbpy.tif	588641.387757	588641.646345	588642.353278	7.675330e-01	20	none	NaN	NaN
109	5	88	57	bathroom	sun_axldvoqbuvuggfmq.tif	588643.122811	588643.381402	588644.088342	6.841055e-01	47	none	NaN	NaN
109	5	89	22	bathroom	sun_agguqiubmwhqqunb.tif	588644.857865	588645.116455	588645.823355	6.757628e-01	12	none	NaN	NaN
109	5	90	19	bathroom	sun_aclfzgynxzxlbepz.tif	588646.592920	588646.851509	588647.558363	7.341620e-01	9	none	NaN	NaN
109	5	91	25	bathroom	sun_agyqfjcfkdcydepw.tif	588648.327976	588648.586565	588649.293383	6.674200e-01	15	37	588649.812423	1
109	5	92	43	bathroom	sun_apjevzvycyhuqghb.tif	588650.588549	588650.847133	588651.553959	6.674200e-01	33	none	NaN	NaN
109	5	93	54	bathroom	sun_auzqhkafidnkrwmo.tif	588652.323601	588652.582194	588653.289012	7.758758e-01	44	none	NaN	NaN
109	5	94	51	bathroom	sun_atstyziqcmkahyxk.tif	588654.058653	588654.317242	588655.024062	7.425048e-01	41	none	NaN	NaN
109	5	95	24	bathroom	sun_agrwbmhcpmfuwmsg.tif	588655.793704	588656.052294	588656.759225	6.841055e-01	14	none	NaN	NaN
109	5	96	23	bathroom	sun_aghyqhbptboemmoq.tif	588657.528762	588657.787352	588658.494349	6.924483e-01	13	39	588661.340454	1
109	5	97	40	bathroom	sun_aofnryafpsjimzsb.tif	588662.116643	588662.375227	588663.082243	6.507345e-01	30	none	NaN	NaN
109	5	98	41	bathroom	sun_aoybiabnpadelefl.tif	588663.851695	588664.110283	588664.817192	7.508475e-01	31	none	NaN	NaN
109	5	99	48	bathroom	sun_aqrpegblszgcoujh.tif	588665.586751	588665.845336	588666.552173	7.925613e-01	38	none	NaN	NaN
109	5	100	17	bathroom	sun_acegryoqftbzowsg.tif	588667.321808	588667.580392	588668.287316	8.259323e-01	7	none	NaN	NaN
109	6	1	64	kitchen	sun_aadbddgrdsjugojn.tif	588692.988919	588693.247506	588693.987707	8.426178e-01	54	none	NaN	NaN
109	6	2	81	kitchen	sun_aehawpgmrlhlvcow.tif	588694.757337	588695.015928	588695.756238	7.091338e-01	71	none	NaN	NaN
109	6	3	108	kitchen	sun_aymvwlarqodbwuoc.tif	588696.525759	588696.784346	588697.524670	6.841055e-01	98	none	NaN	NaN
109	6	4	65	kitchen	sun_aamedkxepzlwuxes.tif	588698.294176	588698.552768	588699.293038	8.259323e-01	55	none	NaN	NaN
109	6	5	87	kitchen	sun_agorklincwxrdtga.tif	588700.062602	588700.321184	588701.061515	8.175895e-01	77	none	NaN	NaN
109	6	6	90	kitchen	sun_ahdycvpopffkzzsu.tif	588701.831018	588702.089606	588702.829869	7.508475e-01	80	none	NaN	NaN
109	6	7	99	kitchen	sun_akcjzhbbjlbogpdi.tif	588703.599439	588703.858024	588704.598405	7.675330e-01	89	39	588705.932556	1
109	6	8	93	kitchen	sun_ahspylgoovwmwvgk.tif	588706.710857	588706.969447	588707.709720	7.007910e-01	83	none	NaN	NaN
109	6	9	62	kitchen	labelme_kxvouciolcpqplr.tif	588708.479275	588708.737862	588709.478119	6.674200e-01	52	none	NaN	NaN
109	6	10	69	kitchen	sun_abdenxonkemggwsq.tif	588710.247697	588710.506286	588711.246607	6.841055e-01	59	none	NaN	NaN
109	6	11	98	kitchen	sun_akchetnepxlcxhsu.tif	588712.016114	588712.274706	588713.014935	7.842185e-01	88	none	NaN	NaN
109	6	12	106	kitchen	sun_awcpdzzznmweyyhv.tif	588713.784539	588714.043123	588714.783348	7.925613e-01	96	none	NaN	NaN
109	6	13	109	kitchen	sun_aypmqwcualkenuoe.tif	588715.552952	588715.811547	588716.551726	6.924483e-01	99	none	NaN	NaN
109	6	14	100	kitchen	sun_amjjdeyrggfqgmom.tif	588717.321375	588717.579966	588718.320293	7.174765e-01	90	none	NaN	NaN
109	6	15	89	kitchen	sun_agzzivivdpnawacl.tif	588719.089796	588719.348388	588720.088717	8.259323e-01	79	none	NaN	NaN
109	6	16	103	kitchen	sun_aunzlwrbjumxhwdj.tif	588720.858215	588721.116806	588721.857145	6.924483e-01	93	none	NaN	NaN
109	6	17	78	kitchen	sun_adgqasybjyktddhj.tif	588722.626640	588722.885226	588723.625624	8.342750e-01	68	none	NaN	NaN
109	6	18	68	kitchen	sun_aaxxjlsuzvqlgylf.tif	588724.395054	588724.653649	588725.393932	8.259323e-01	58	none	NaN	NaN
109	6	19	71	kitchen	sun_abftihopvusyfakt.tif	588726.163475	588726.422063	588727.162284	7.091338e-01	61	none	NaN	NaN
109	6	20	105	kitchen	sun_avszsnwsbuqfgzbn.tif	588727.931892	588728.190484	588728.930701	6.507345e-01	95	37	588729.604545	0
109	6	21	73	kitchen	sun_abrcnpqqhmjwekyf.tif	588730.375989	588730.634574	588731.374954	7.591903e-01	63	none	NaN	NaN
109	6	22	67	kitchen	sun_aarfiyshqohlwkmo.tif	588732.144405	588732.402998	588733.143357	7.758758e-01	57	none	NaN	NaN
109	6	23	86	kitchen	sun_aggjlwcdjsjcaemh.tif	588733.912824	588734.171417	588734.911781	8.009040e-01	76	none	NaN	NaN
109	6	24	74	kitchen	sun_acfmftudsenhrfhy.tif	588735.681246	588735.939835	588736.680030	6.590773e-01	64	none	NaN	NaN
109	6	25	66	kitchen	sun_aapllqyqlykszopd.tif	588737.449666	588737.708253	588738.448495	7.174765e-01	56	none	NaN	NaN
109	6	26	95	kitchen	sun_aixorpehvfykdynp.tif	588739.218088	588739.476675	588740.216906	7.591903e-01	85	none	NaN	NaN
109	6	27	70	kitchen	sun_abdxkyyxwfskuaqb.tif	588740.986506	588741.245096	588741.985289	8.342750e-01	60	39	588742.772541	1
109	6	28	75	kitchen	sun_acgtpgfybqjmzeyw.tif	588743.547378	588743.805966	588744.546235	8.426178e-01	65	none	NaN	NaN
109	6	29	94	kitchen	sun_ahywdevtimnqcsln.tif	588745.315799	588745.574390	588746.314666	7.425048e-01	84	none	NaN	NaN
109	6	30	85	kitchen	sun_afuyedyxivkhecmu.tif	588747.084217	588747.342809	588748.083080	7.842185e-01	75	none	NaN	NaN
109	6	31	107	kitchen	sun_axyyrmzcupyhlivc.tif	588748.852633	588749.111229	588749.851401	8.175895e-01	97	none	NaN	NaN
109	6	32	91	kitchen	sun_ahljzhgcdpomplvg.tif	588750.621057	588750.879646	588751.619937	7.258193e-01	81	none	NaN	NaN
109	6	33	96	kitchen	sun_ajcbwwvdlsvjyzje.tif	588752.389477	588752.648070	588753.388463	7.758758e-01	86	39	588754.532604	1
109	6	34	82	kitchen	sun_aenotlpyftoioydp.tif	588755.309034	588755.567629	588756.307809	7.591903e-01	72	37	588756.972647	1
109	6	35	102	kitchen	sun_auaiucuqpdausiva.tif	588757.744785	588758.003376	588758.743742	8.009040e-01	92	37	588759.348696	1
109	6	36	72	kitchen	sun_abpwyqmlzafvklqo.tif	588760.122152	588760.380734	588761.120930	7.258193e-01	62	none	NaN	NaN
109	6	37	84	kitchen	sun_aexklacwqwezaorf.tif	588761.890566	588762.149151	588762.889777	7.675330e-01	74	39	588763.940766	1
109	6	38	101	kitchen	sun_aqeaevwwwjoqhzvl.tif	588764.718365	588764.976954	588765.717155	7.675330e-01	91	none	NaN	NaN
109	6	39	110	kitchen	sun_azmutvzbxypaceni.tif	588766.486789	588766.745379	588767.485642	6.590773e-01	100	none	NaN	NaN
109	6	40	83	kitchen	sun_aeqdocilnnpuvuhx.tif	588768.255208	588768.513800	588769.253986	8.009040e-01	73	none	NaN	NaN
109	6	41	77	kitchen	sun_acxkpeoqbwcxfvip.tif	588770.023627	588770.282221	588771.022498	8.175895e-01	67	none	NaN	NaN
109	6	42	63	kitchen	labelme_rykdqxenmhulbdn.tif	588771.792046	588772.050638	588772.790876	6.507345e-01	53	none	NaN	NaN
109	6	43	80	kitchen	sun_aegoxogugdkwpmpj.tif	588773.560469	588773.819055	588774.559365	7.091338e-01	70	none	NaN	NaN
109	6	44	79	kitchen	sun_admlmbcdswaszruo.tif	588775.328885	588775.587478	588776.327696	7.925613e-01	69	37	588777.044692	1
109	6	45	61	kitchen	labelme_brsyyvweiuaazfr.tif	588777.823029	588778.081616	588778.821886	7.007910e-01	51	none	NaN	NaN
109	6	46	97	kitchen	sun_ajkqhtgcbgpcwrwn.tif	588779.591450	588779.850033	588780.590246	7.091338e-01	87	none	NaN	NaN
109	6	47	88	kitchen	sun_agubuxuukhzyzpdp.tif	588781.359867	588781.618456	588782.358840	7.341620e-01	78	none	NaN	NaN
109	6	48	104	kitchen	sun_auticobqsbwgoppi.tif	588783.128287	588783.386877	588784.127073	7.758758e-01	94	none	NaN	NaN
109	6	49	76	kitchen	sun_acwjdupvyjsugpay.tif	588784.896709	588785.155295	588785.895575	7.591903e-01	66	none	NaN	NaN
109	6	50	92	kitchen	sun_ahpczsiumwwocjkv.tif	588786.665129	588786.923715	588787.663933	7.174765e-01	82	none	NaN	NaN
109	6	51	105	kitchen	sun_avszsnwsbuqfgzbn.tif	588788.433548	588788.692137	588789.432473	8.259323e-01	95	none	NaN	NaN
109	6	52	92	kitchen	sun_ahpczsiumwwocjkv.tif	588790.201966	588790.460556	588791.200815	8.342750e-01	82	none	NaN	NaN
109	6	53	83	kitchen	sun_aeqdocilnnpuvuhx.tif	588791.970388	588792.228977	588792.969221	7.341620e-01	73	none	NaN	NaN
109	6	54	94	kitchen	sun_ahywdevtimnqcsln.tif	588793.738811	588793.997397	588794.737716	8.092468e-01	84	none	NaN	NaN
109	6	55	101	kitchen	sun_aqeaevwwwjoqhzvl.tif	588795.507229	588795.765816	588796.506052	7.007910e-01	91	none	NaN	NaN
109	6	56	81	kitchen	sun_aehawpgmrlhlvcow.tif	588797.275650	588797.534235	588798.274609	6.841055e-01	71	none	NaN	NaN
109	6	57	87	kitchen	sun_agorklincwxrdtga.tif	588799.044066	588799.302656	588800.042971	8.092468e-01	77	none	NaN	NaN
109	6	58	89	kitchen	sun_agzzivivdpnawacl.tif	588800.812488	588801.071079	588801.811469	7.258193e-01	79	none	NaN	NaN
109	6	59	74	kitchen	sun_acfmftudsenhrfhy.tif	588802.580909	588802.839491	588803.579779	8.009040e-01	64	none	NaN	NaN
109	6	60	67	kitchen	sun_aarfiyshqohlwkmo.tif	588804.349330	588804.607914	588805.348292	6.924483e-01	57	none	NaN	NaN
109	6	61	63	kitchen	labelme_rykdqxenmhulbdn.tif	588806.117746	588806.376336	588807.116543	6.674200e-01	53	none	NaN	NaN
109	6	62	84	kitchen	sun_aexklacwqwezaorf.tif	588807.886169	588808.144756	588808.885026	6.590773e-01	74	none	NaN	NaN
109	6	63	103	kitchen	sun_aunzlwrbjumxhwdj.tif	588809.654590	588809.913175	588810.653509	6.924483e-01	93	37	588811.220449	1
109	6	64	91	kitchen	sun_ahljzhgcdpomplvg.tif	588811.998577	588812.257168	588812.997536	6.924483e-01	81	none	NaN	NaN
109	6	65	62	kitchen	labelme_kxvouciolcpqplr.tif	588813.766999	588814.025593	588814.765961	7.425048e-01	52	39	588815.684579	1
109	6	66	106	kitchen	sun_awcpdzzznmweyyhv.tif	588816.461332	588816.719923	588817.460107	6.674200e-01	96	none	NaN	NaN
109	6	67	68	kitchen	sun_aaxxjlsuzvqlgylf.tif	588818.229757	588818.488349	588819.228615	7.508475e-01	58	none	NaN	NaN
109	6	68	65	kitchen	sun_aamedkxepzlwuxes.tif	588819.998174	588820.256764	588820.997001	7.341620e-01	55	none	NaN	NaN
109	6	69	96	kitchen	sun_ajcbwwvdlsvjyzje.tif	588821.766597	588822.025186	588822.765435	7.007910e-01	86	none	NaN	NaN
109	6	70	110	kitchen	sun_azmutvzbxypaceni.tif	588823.535017	588823.793604	588824.533819	8.426178e-01	100	none	NaN	NaN
109	6	71	77	kitchen	sun_acxkpeoqbwcxfvip.tif	588825.303433	588825.562026	588826.302355	8.509605e-01	67	37	588827.516685	0
109	6	72	86	kitchen	sun_aggjlwcdjsjcaemh.tif	588828.289721	588828.548321	588829.288560	7.925613e-01	76	none	NaN	NaN
109	6	73	64	kitchen	sun_aadbddgrdsjugojn.tif	588830.058147	588830.316738	588831.056964	6.757628e-01	54	none	NaN	NaN
109	6	74	76	kitchen	sun_acwjdupvyjsugpay.tif	588831.826564	588832.085158	588832.825461	8.175895e-01	66	none	NaN	NaN
109	6	75	104	kitchen	sun_auticobqsbwgoppi.tif	588833.594989	588833.853577	588834.593954	8.509605e-01	94	none	NaN	NaN
109	6	76	95	kitchen	sun_aixorpehvfykdynp.tif	588835.363410	588835.621996	588836.362243	7.508475e-01	85	none	NaN	NaN
109	6	77	109	kitchen	sun_aypmqwcualkenuoe.tif	588837.131832	588837.390415	588838.130682	8.342750e-01	99	none	NaN	NaN
109	6	78	108	kitchen	sun_aymvwlarqodbwuoc.tif	588838.900253	588839.158839	588839.899154	6.757628e-01	98	37	588840.676646	1
109	6	79	100	kitchen	sun_amjjdeyrggfqgmom.tif	588841.452782	588841.711371	588842.451696	7.591903e-01	90	none	NaN	NaN
109	6	80	99	kitchen	sun_akcjzhbbjlbogpdi.tif	588843.221195	588843.479793	588844.220154	6.590773e-01	89	none	NaN	NaN
109	6	81	70	kitchen	sun_abdxkyyxwfskuaqb.tif	588844.989620	588845.248209	588845.988450	7.174765e-01	60	none	NaN	NaN
109	6	82	75	kitchen	sun_acgtpgfybqjmzeyw.tif	588846.758040	588847.016626	588847.756917	6.674200e-01	65	37	588848.492746	1
109	6	83	90	kitchen	sun_ahdycvpopffkzzsu.tif	588849.268863	588849.527452	588850.267644	6.757628e-01	80	none	NaN	NaN
109	6	84	97	kitchen	sun_ajkqhtgcbgpcwrwn.tif	588851.037283	588851.295872	588852.036199	6.841055e-01	87	none	NaN	NaN
109	6	85	88	kitchen	sun_agubuxuukhzyzpdp.tif	588852.805700	588853.064287	588853.804564	6.507345e-01	78	none	NaN	NaN
109	6	86	80	kitchen	sun_aegoxogugdkwpmpj.tif	588854.574123	588854.832710	588855.573106	8.092468e-01	70	none	NaN	NaN
109	6	87	82	kitchen	sun_aenotlpyftoioydp.tif	588856.342547	588856.601131	588857.341379	7.258193e-01	72	none	NaN	NaN
109	6	88	102	kitchen	sun_auaiucuqpdausiva.tif	588858.110963	588858.369549	588859.109946	7.925613e-01	92	39	588860.236636	1
109	6	89	66	kitchen	sun_aapllqyqlykszopd.tif	588861.013841	588861.272430	588862.012748	7.842185e-01	56	none	NaN	NaN
109	6	90	78	kitchen	sun_adgqasybjyktddhj.tif	588862.782263	588863.040850	588863.781231	8.092468e-01	68	none	NaN	NaN
109	6	91	61	kitchen	labelme_brsyyvweiuaazfr.tif	588864.550679	588864.809274	588865.549559	8.175895e-01	51	none	NaN	NaN
109	6	92	79	kitchen	sun_admlmbcdswaszruo.tif	588866.319102	588866.577688	588867.318068	8.426178e-01	69	37	588867.956753	1
109	6	93	73	kitchen	sun_abrcnpqqhmjwekyf.tif	588868.729825	588868.988416	588869.728676	7.675330e-01	63	none	NaN	NaN
109	6	94	69	kitchen	sun_abdenxonkemggwsq.tif	588870.498244	588870.756833	588871.497017	6.757628e-01	59	none	NaN	NaN
109	6	95	98	kitchen	sun_akchetnepxlcxhsu.tif	588872.266668	588872.525255	588873.265559	7.758758e-01	88	none	NaN	NaN
109	6	96	107	kitchen	sun_axyyrmzcupyhlivc.tif	588874.035083	588874.293678	588875.033958	7.842185e-01	97	none	NaN	NaN
109	6	97	71	kitchen	sun_abftihopvusyfakt.tif	588875.803505	588876.062098	588876.802473	7.508475e-01	61	none	NaN	NaN
109	6	98	85	kitchen	sun_afuyedyxivkhecmu.tif	588877.571923	588877.830516	588878.570808	7.341620e-01	75	none	NaN	NaN
109	6	99	93	kitchen	sun_ahspylgoovwmwvgk.tif	588879.340346	588879.598935	588880.339173	7.425048e-01	83	none	NaN	NaN
109	6	100	72	kitchen	sun_abpwyqmlzafvklqo.tif	588881.108762	588881.367353	588882.107618	7.425048e-01	62	none	NaN	NaN
109	7	1	30	bathroom	sun_ajlawzvmubibwbpy.tif	588907.443207	588907.701794	588908.391922	6.674200e-01	20	37	588909.292828	1
109	7	2	24	bathroom	sun_agrwbmhcpmfuwmsg.tif	588910.070807	588910.329398	588911.019714	7.425048e-01	14	none	NaN	NaN
109	7	3	18	bathroom	sun_acgyywnybuveqsro.tif	588911.789180	588912.047776	588912.738074	7.675330e-01	8	none	NaN	NaN
109	7	4	11	bathroom	labelme_sfxiulhjbhlyiyt.tif	588913.507557	588913.766139	588914.456424	7.508475e-01	1	none	NaN	NaN
109	7	5	36	bathroom	sun_ambriybtogmepttm.tif	588915.225924	588915.484513	588916.174735	7.842185e-01	26	none	NaN	NaN
109	7	6	59	bathroom	sun_axyrejkiiaqiurjk.tif	588916.944294	588917.202881	588917.893207	8.009040e-01	49	39	588918.924661	1
109	7	7	41	bathroom	sun_aoybiabnpadelefl.tif	588919.697021	588919.955616	588920.645783	7.007910e-01	31	none	NaN	NaN
109	7	8	27	bathroom	sun_ahcvzmoyaycdoftf.tif	588921.415394	588921.673983	588922.364305	7.341620e-01	17	none	NaN	NaN
109	7	9	33	bathroom	sun_aljolscmmzydegqp.tif	588923.133765	588923.392354	588924.082556	7.425048e-01	23	none	NaN	NaN
109	7	10	19	bathroom	sun_aclfzgynxzxlbepz.tif	588924.852137	588925.110725	588925.801005	6.757628e-01	9	none	NaN	NaN
109	7	11	50	bathroom	sun_aspsyogrekjtfozg.tif	588926.570508	588926.829096	588927.519429	7.508475e-01	40	none	NaN	NaN
109	7	12	25	bathroom	sun_agyqfjcfkdcydepw.tif	588928.288876	588928.547467	588929.237724	6.507345e-01	15	37	588929.892700	1
109	7	13	48	bathroom	sun_aqrpegblszgcoujh.tif	588930.666235	588930.924826	588931.615085	8.009040e-01	38	none	NaN	NaN
109	7	14	52	bathroom	sun_aunuadmjocsddsrl.tif	588932.384600	588932.643196	588933.333416	8.342750e-01	42	none	NaN	NaN
109	7	15	45	bathroom	sun_apkxzenqapsujocq.tif	588934.102972	588934.361560	588935.051880	7.925613e-01	35	none	NaN	NaN
109	7	16	54	bathroom	sun_auzqhkafidnkrwmo.tif	588935.821344	588936.079933	588936.770270	6.841055e-01	44	none	NaN	NaN
109	7	17	43	bathroom	sun_apjevzvycyhuqghb.tif	588937.539717	588937.798308	588938.488453	6.924483e-01	33	37	588939.108698	1
109	7	18	23	bathroom	sun_aghyqhbptboemmoq.tif	588939.883701	588940.142288	588940.832617	7.591903e-01	13	none	NaN	NaN
109	7	19	57	bathroom	sun_axldvoqbuvuggfmq.tif	588941.602071	588941.860668	588942.550817	7.508475e-01	47	none	NaN	NaN
109	7	20	13	bathroom	sun_aavhrsfjbserjtht.tif	588943.320447	588943.579037	588944.269285	8.175895e-01	3	none	NaN	NaN
109	7	21	28	bathroom	sun_ahijqszoswveeyji.tif	588945.038816	588945.297404	588945.987746	7.341620e-01	18	39	588946.748980	1
109	7	22	51	bathroom	sun_atstyziqcmkahyxk.tif	588947.524615	588947.783204	588948.473508	7.258193e-01	41	none	NaN	NaN
109	7	23	55	bathroom	sun_avhrdrntsqrjzccq.tif	588949.242985	588949.501572	588950.191868	7.091338e-01	45	none	NaN	NaN
109	7	24	40	bathroom	sun_aofnryafpsjimzsb.tif	588950.961354	588951.219940	588951.910235	6.924483e-01	30	none	NaN	NaN
109	7	25	44	bathroom	sun_apkruvsevgegsdwp.tif	588952.679727	588952.938314	588953.628651	8.092468e-01	34	none	NaN	NaN
109	7	26	42	bathroom	sun_apeeialkgkuxddgh.tif	588954.398093	588954.656683	588955.346999	8.175895e-01	32	none	NaN	NaN
109	7	27	20	bathroom	sun_afcoljnjfoxjtgja.tif	588956.116464	588956.375055	588957.065328	7.174765e-01	10	none	NaN	NaN
109	7	28	17	bathroom	sun_acegryoqftbzowsg.tif	588957.834838	588958.093423	588958.783598	8.259323e-01	7	none	NaN	NaN
109	7	29	37	bathroom	sun_amzlamotzwfkwjco.tif	588959.553203	588959.811796	588960.501994	6.924483e-01	27	none	NaN	NaN
109	7	30	16	bathroom	sun_acduarbnmmoglmiv.tif	588961.271574	588961.530164	588962.220418	6.841055e-01	6	none	NaN	NaN
109	7	31	34	bathroom	sun_alkosphxlxwjwgjd.tif	588962.989950	588963.248538	588963.938689	8.342750e-01	24	none	NaN	NaN
109	7	32	49	bathroom	sun_asfwthctfqerjvxr.tif	588964.708316	588964.966908	588965.657054	7.675330e-01	39	none	NaN	NaN
109	7	33	31	bathroom	sun_akiytfaagpdsphgz.tif	588966.426685	588966.685280	588967.375429	7.925613e-01	21	none	NaN	NaN
109	7	34	53	bathroom	sun_ausgutylgojavyoq.tif	588968.145061	588968.403647	588969.093863	7.091338e-01	43	39	588970.388789	1
109	7	35	39	bathroom	sun_anryaplzeujmzfkd.tif	588971.164720	588971.423307	588972.113620	8.426178e-01	29	none	NaN	NaN
109	7	36	21	bathroom	sun_aggnnqpdorgxpvce.tif	588972.883087	588973.141680	588973.832009	7.925613e-01	11	37	588975.820800	0
109	7	37	56	bathroom	sun_awnqiikzaispgmwo.tif	588976.595101	588976.853689	588977.543860	7.341620e-01	46	none	NaN	NaN
109	7	38	14	bathroom	sun_abapwbhyhkfixyex.tif	588978.313474	588978.572060	588979.262394	8.175895e-01	4	none	NaN	NaN
109	7	39	60	bathroom	sun_azqyogdvyhahyram.tif	588980.031844	588980.290431	588980.980613	7.591903e-01	50	none	NaN	NaN
109	7	40	38	bathroom	sun_anhioqovhscjqqwb.tif	588981.750215	588982.008805	588982.699104	8.175895e-01	28	none	NaN	NaN
109	7	41	47	bathroom	sun_apynckhmoftszqoq.tif	588983.468584	588983.727172	588984.417494	6.507345e-01	37	none	NaN	NaN
109	7	42	12	bathroom	sun_aapitsgbtktqubfy.tif	588985.186951	588985.445542	588986.135870	8.009040e-01	2	none	NaN	NaN
109	7	43	22	bathroom	sun_agguqiubmwhqqunb.tif	588986.905325	588987.163915	588987.854249	7.425048e-01	12	37	588988.636924	1
109	7	44	46	bathroom	sun_apmqjbnwghzuhhzh.tif	588989.407807	588989.666391	588990.356640	8.342750e-01	36	none	NaN	NaN
109	7	45	58	bathroom	sun_axxbkopsgyouuebh.tif	588991.126178	588991.384766	588992.075060	8.259323e-01	48	none	NaN	NaN
109	7	46	35	bathroom	sun_alotolagknyrgtsk.tif	588992.844541	588993.103152	588993.793317	8.426178e-01	25	none	NaN	NaN
109	7	47	26	bathroom	sun_ahaulkltgpkeeemi.tif	588994.562920	588994.821507	588995.511795	8.092468e-01	16	none	NaN	NaN
109	7	48	29	bathroom	sun_ahqjwnzgolcaoidx.tif	588996.281284	588996.539875	588997.230138	6.674200e-01	19	none	NaN	NaN
109	7	49	32	bathroom	sun_aleqenyvunhactkl.tif	588997.999659	588998.258247	588998.948517	7.591903e-01	22	none	NaN	NaN
109	7	50	15	bathroom	sun_abjtwfukuwddzted.tif	588999.718051	588999.976620	589000.666762	6.590773e-01	5	none	NaN	NaN
109	7	51	16	bathroom	sun_acduarbnmmoglmiv.tif	589001.436397	589001.694978	589002.385121	7.174765e-01	6	none	NaN	NaN
109	7	52	53	bathroom	sun_ausgutylgojavyoq.tif	589003.154769	589003.413360	589004.103489	8.342750e-01	43	none	NaN	NaN
109	7	53	23	bathroom	sun_aghyqhbptboemmoq.tif	589004.873140	589005.131727	589005.821872	7.758758e-01	13	none	NaN	NaN
109	7	54	17	bathroom	sun_acegryoqftbzowsg.tif	589006.591511	589006.850103	589007.540404	6.674200e-01	7	none	NaN	NaN
109	7	55	32	bathroom	sun_aleqenyvunhactkl.tif	589008.309881	589008.568470	589009.258746	8.426178e-01	22	37	589009.956805	1
109	7	56	37	bathroom	sun_amzlamotzwfkwjco.tif	589010.728941	589010.987538	589011.677865	8.092468e-01	27	none	NaN	NaN
109	7	57	59	bathroom	sun_axyrejkiiaqiurjk.tif	589012.447317	589012.705908	589013.396205	7.508475e-01	49	37	589016.445061	0
109	7	58	41	bathroom	sun_aoybiabnpadelefl.tif	589017.218708	589017.477300	589018.167544	7.007910e-01	31	none	NaN	NaN
109	7	59	26	bathroom	sun_ahaulkltgpkeeemi.tif	589018.937079	589019.195672	589019.885976	8.092468e-01	16	none	NaN	NaN
109	7	60	55	bathroom	sun_avhrdrntsqrjzccq.tif	589020.655452	589020.914046	589021.604164	6.757628e-01	45	none	NaN	NaN
109	7	61	40	bathroom	sun_aofnryafpsjimzsb.tif	589022.373822	589022.632413	589023.322679	7.341620e-01	30	none	NaN	NaN
109	7	62	33	bathroom	sun_aljolscmmzydegqp.tif	589024.092192	589024.350780	589025.041019	6.924483e-01	23	none	NaN	NaN
109	7	63	24	bathroom	sun_agrwbmhcpmfuwmsg.tif	589025.810563	589026.069154	589026.759288	7.591903e-01	14	none	NaN	NaN
109	7	64	39	bathroom	sun_anryaplzeujmzfkd.tif	589027.528933	589027.787526	589028.477673	8.509605e-01	29	none	NaN	NaN
109	7	65	38	bathroom	sun_anhioqovhscjqqwb.tif	589029.247309	589029.505894	589030.196114	6.590773e-01	28	none	NaN	NaN
109	7	66	15	bathroom	sun_abjtwfukuwddzted.tif	589030.965674	589031.224262	589031.914419	6.757628e-01	5	none	NaN	NaN
109	7	67	42	bathroom	sun_apeeialkgkuxddgh.tif	589032.684042	589032.942633	589033.632903	7.842185e-01	32	none	NaN	NaN
109	7	68	11	bathroom	labelme_sfxiulhjbhlyiyt.tif	589034.402416	589034.661005	589035.351135	8.509605e-01	1	none	NaN	NaN
109	7	69	12	bathroom	sun_aapitsgbtktqubfy.tif	589036.120788	589036.379378	589037.069526	6.841055e-01	2	none	NaN	NaN
109	7	70	43	bathroom	sun_apjevzvycyhuqghb.tif	589037.839155	589038.097745	589038.787889	7.258193e-01	33	none	NaN	NaN
109	7	71	47	bathroom	sun_apynckhmoftszqoq.tif	589039.557526	589039.816118	589040.506382	8.009040e-01	37	37	589041.132852	1
109	7	72	34	bathroom	sun_alkosphxlxwjwgjd.tif	589041.909859	589042.168449	589042.859503	7.591903e-01	24	none	NaN	NaN
109	7	73	30	bathroom	sun_ajlawzvmubibwbpy.tif	589043.628234	589043.886817	589044.577126	7.174765e-01	20	none	NaN	NaN
109	7	74	56	bathroom	sun_awnqiikzaispgmwo.tif	589045.346599	589045.605192	589046.295426	6.590773e-01	46	none	NaN	NaN
109	7	75	36	bathroom	sun_ambriybtogmepttm.tif	589047.064972	589047.323563	589048.013689	8.175895e-01	26	none	NaN	NaN
109	7	76	46	bathroom	sun_apmqjbnwghzuhhzh.tif	589048.783342	589049.041934	589049.732132	6.674200e-01	36	none	NaN	NaN
109	7	77	14	bathroom	sun_abapwbhyhkfixyex.tif	589050.501710	589050.760302	589051.450434	7.758758e-01	4	none	NaN	NaN
109	7	78	19	bathroom	sun_aclfzgynxzxlbepz.tif	589052.220081	589052.478671	589053.168910	6.924483e-01	9	none	NaN	NaN
109	7	79	25	bathroom	sun_agyqfjcfkdcydepw.tif	589053.938452	589054.197042	589054.887352	7.007910e-01	15	none	NaN	NaN
109	7	80	13	bathroom	sun_aavhrsfjbserjtht.tif	589055.656822	589055.915412	589056.605671	7.258193e-01	3	none	NaN	NaN
109	7	81	60	bathroom	sun_azqyogdvyhahyram.tif	589057.375193	589057.633779	589058.323959	7.425048e-01	50	none	NaN	NaN
109	7	82	50	bathroom	sun_aspsyogrekjtfozg.tif	589059.093560	589059.352156	589060.042458	6.507345e-01	40	39	589061.132965	1
109	7	83	22	bathroom	sun_agguqiubmwhqqunb.tif	589061.904682	589062.163220	589062.853476	6.590773e-01	12	none	NaN	NaN
109	7	84	20	bathroom	sun_afcoljnjfoxjtgja.tif	589063.623067	589063.881648	589064.571782	8.259323e-01	10	none	NaN	NaN
109	7	85	18	bathroom	sun_acgyywnybuveqsro.tif	589065.341427	589065.600016	589066.290350	6.757628e-01	8	none	NaN	NaN
109	7	86	58	bathroom	sun_axxbkopsgyouuebh.tif	589067.059796	589067.318389	589068.008615	7.758758e-01	48	none	NaN	NaN
109	7	87	35	bathroom	sun_alotolagknyrgtsk.tif	589068.778168	589069.036758	589069.727005	7.258193e-01	25	none	NaN	NaN
109	7	88	44	bathroom	sun_apkruvsevgegsdwp.tif	589070.496533	589070.755128	589071.445400	7.007910e-01	34	none	NaN	NaN
109	7	89	48	bathroom	sun_aqrpegblszgcoujh.tif	589072.214902	589072.473496	589073.163632	7.842185e-01	38	none	NaN	NaN
109	7	90	45	bathroom	sun_apkxzenqapsujocq.tif	589073.933275	589074.191860	589074.882051	7.842185e-01	35	none	NaN	NaN
109	7	91	57	bathroom	sun_axldvoqbuvuggfmq.tif	589075.651647	589075.910235	589076.600442	7.091338e-01	47	39	589078.396937	1
109	7	92	51	bathroom	sun_atstyziqcmkahyxk.tif	589079.171802	589079.430395	589080.120552	7.174765e-01	41	none	NaN	NaN
109	7	93	31	bathroom	sun_akiytfaagpdsphgz.tif	589080.890177	589081.148763	589081.839104	7.925613e-01	21	none	NaN	NaN
109	7	94	29	bathroom	sun_ahqjwnzgolcaoidx.tif	589082.608545	589082.867138	589083.557327	8.259323e-01	19	none	NaN	NaN
109	7	95	54	bathroom	sun_auzqhkafidnkrwmo.tif	589084.326917	589084.585506	589085.275669	8.426178e-01	44	37	589085.940994	1
109	7	96	49	bathroom	sun_asfwthctfqerjvxr.tif	589086.712626	589086.971202	589087.661533	7.758758e-01	39	none	NaN	NaN
109	7	97	52	bathroom	sun_aunuadmjocsddsrl.tif	589088.430980	589088.689574	589089.379901	7.675330e-01	42	none	NaN	NaN
109	7	98	28	bathroom	sun_ahijqszoswveeyji.tif	589090.149351	589090.407945	589091.098182	6.841055e-01	18	none	NaN	NaN
109	7	99	21	bathroom	sun_aggnnqpdorgxpvce.tif	589091.867724	589092.126313	589092.816588	7.091338e-01	11	37	589093.468679	1
109	7	100	27	bathroom	sun_ahcvzmoyaycdoftf.tif	589094.245079	589094.503673	589095.194005	7.675330e-01	17	none	NaN	NaN
109	8	1	66	kitchen	sun_aapllqyqlykszopd.tif	589119.678633	589119.937222	589120.619028	6.757628e-01	56	none	NaN	NaN
109	8	2	91	kitchen	sun_ahljzhgcdpomplvg.tif	589121.388660	589121.647251	589122.329184	7.591903e-01	81	37	589123.020990	1
109	8	3	104	kitchen	sun_auticobqsbwgoppi.tif	589123.799380	589124.057973	589124.739889	8.509605e-01	94	none	NaN	NaN
109	8	4	109	kitchen	sun_aypmqwcualkenuoe.tif	589125.509415	589125.767998	589126.449949	7.758758e-01	99	none	NaN	NaN
109	8	5	81	kitchen	sun_aehawpgmrlhlvcow.tif	589127.219444	589127.478030	589128.159837	7.091338e-01	71	37	589128.724988	1
109	8	6	101	kitchen	sun_aqeaevwwwjoqhzvl.tif	589129.496699	589129.755290	589130.437146	7.258193e-01	91	none	NaN	NaN
109	8	7	85	kitchen	sun_afuyedyxivkhecmu.tif	589131.206725	589131.465318	589132.147208	8.175895e-01	75	none	NaN	NaN
109	8	8	83	kitchen	sun_aeqdocilnnpuvuhx.tif	589132.916757	589133.175343	589133.857257	6.924483e-01	73	none	NaN	NaN
109	8	9	80	kitchen	sun_aegoxogugdkwpmpj.tif	589134.626783	589134.885375	589135.567236	8.092468e-01	70	none	NaN	NaN
109	8	10	86	kitchen	sun_aggjlwcdjsjcaemh.tif	589136.336817	589136.595404	589137.277278	6.674200e-01	76	39	589138.196980	1
109	8	11	65	kitchen	sun_aamedkxepzlwuxes.tif	589138.972761	589139.231352	589139.913155	7.007910e-01	55	none	NaN	NaN
109	8	12	98	kitchen	sun_akchetnepxlcxhsu.tif	589140.682786	589140.941382	589141.623289	7.007910e-01	88	none	NaN	NaN
109	8	13	77	kitchen	sun_acxkpeoqbwcxfvip.tif	589142.392818	589142.651408	589143.333206	8.009040e-01	67	none	NaN	NaN
109	8	14	96	kitchen	sun_ajcbwwvdlsvjyzje.tif	589144.102845	589144.361436	589145.043327	8.259323e-01	86	none	NaN	NaN
109	8	15	84	kitchen	sun_aexklacwqwezaorf.tif	589145.812879	589146.071466	589146.753259	7.258193e-01	74	39	589147.572958	1
109	8	16	79	kitchen	sun_admlmbcdswaszruo.tif	589148.348727	589148.607308	589149.289249	7.508475e-01	69	none	NaN	NaN
109	8	17	89	kitchen	sun_agzzivivdpnawacl.tif	589150.058752	589150.317341	589150.999332	8.426178e-01	79	37	589151.644878	1
109	8	18	92	kitchen	sun_ahpczsiumwwocjkv.tif	589152.419424	589152.678017	589153.359841	8.426178e-01	82	none	NaN	NaN
109	8	19	93	kitchen	sun_ahspylgoovwmwvgk.tif	589154.129454	589154.388044	589155.069823	7.758758e-01	83	39	589155.796748	1
109	8	20	87	kitchen	sun_agorklincwxrdtga.tif	589156.573544	589156.832131	589157.513967	7.842185e-01	77	37	589158.116872	1
109	8	21	68	kitchen	sun_aaxxjlsuzvqlgylf.tif	589158.892513	589159.151099	589159.832944	6.841055e-01	58	none	NaN	NaN
109	8	22	76	kitchen	sun_acwjdupvyjsugpay.tif	589160.602540	589160.861133	589161.542983	6.590773e-01	66	none	NaN	NaN
109	8	23	67	kitchen	sun_aarfiyshqohlwkmo.tif	589162.312571	589162.571159	589163.252971	6.590773e-01	57	none	NaN	NaN
109	8	24	97	kitchen	sun_ajkqhtgcbgpcwrwn.tif	589164.022601	589164.281188	589164.963131	7.508475e-01	87	none	NaN	NaN
109	8	25	110	kitchen	sun_azmutvzbxypaceni.tif	589165.732623	589165.991209	589166.673028	7.174765e-01	100	none	NaN	NaN
109	8	26	105	kitchen	sun_avszsnwsbuqfgzbn.tif	589167.442655	589167.701242	589168.383177	7.842185e-01	95	none	NaN	NaN
109	8	27	70	kitchen	sun_abdxkyyxwfskuaqb.tif	589169.152681	589169.411276	589170.093159	8.509605e-01	60	none	NaN	NaN
109	8	28	69	kitchen	sun_abdenxonkemggwsq.tif	589170.862712	589171.121301	589171.803177	7.508475e-01	59	none	NaN	NaN
109	8	29	64	kitchen	sun_aadbddgrdsjugojn.tif	589172.572737	589172.831332	589173.513108	8.426178e-01	54	none	NaN	NaN
109	8	30	72	kitchen	sun_abpwyqmlzafvklqo.tif	589174.282773	589174.541356	589175.223232	7.675330e-01	62	none	NaN	NaN
109	8	31	71	kitchen	sun_abftihopvusyfakt.tif	589175.992797	589176.251384	589176.933275	7.591903e-01	61	none	NaN	NaN
109	8	32	108	kitchen	sun_aymvwlarqodbwuoc.tif	589177.702831	589177.961417	589178.643265	8.342750e-01	98	none	NaN	NaN
109	8	33	102	kitchen	sun_auaiucuqpdausiva.tif	589179.412856	589179.671441	589180.353264	7.341620e-01	92	none	NaN	NaN
109	8	34	75	kitchen	sun_acgtpgfybqjmzeyw.tif	589181.122886	589181.381474	589182.063482	7.925613e-01	65	none	NaN	NaN
109	8	35	100	kitchen	sun_amjjdeyrggfqgmom.tif	589182.832912	589183.091500	589183.773480	8.259323e-01	90	none	NaN	NaN
109	8	36	74	kitchen	sun_acfmftudsenhrfhy.tif	589184.542941	589184.801527	589185.483515	7.675330e-01	64	none	NaN	NaN
109	8	37	73	kitchen	sun_abrcnpqqhmjwekyf.tif	589186.252973	589186.511561	589187.193355	8.009040e-01	63	none	NaN	NaN
109	8	38	94	kitchen	sun_ahywdevtimnqcsln.tif	589187.963000	589188.221586	589188.903464	8.175895e-01	84	none	NaN	NaN
109	8	39	106	kitchen	sun_awcpdzzznmweyyhv.tif	589189.673025	589189.931616	589190.613518	6.924483e-01	96	none	NaN	NaN
109	8	40	103	kitchen	sun_aunzlwrbjumxhwdj.tif	589191.383057	589191.641643	589192.323499	7.174765e-01	93	none	NaN	NaN
109	8	41	99	kitchen	sun_akcjzhbbjlbogpdi.tif	589193.093082	589193.351678	589194.033490	7.425048e-01	89	none	NaN	NaN
109	8	42	63	kitchen	labelme_rykdqxenmhulbdn.tif	589194.803115	589195.061707	589195.743677	8.259323e-01	53	none	NaN	NaN
109	8	43	61	kitchen	labelme_brsyyvweiuaazfr.tif	589196.513146	589196.771736	589197.453641	7.508475e-01	51	none	NaN	NaN
109	8	44	88	kitchen	sun_agubuxuukhzyzpdp.tif	589198.223169	589198.481759	589199.163587	7.591903e-01	78	none	NaN	NaN
109	8	45	95	kitchen	sun_aixorpehvfykdynp.tif	589199.933205	589200.191791	589200.873678	7.091338e-01	85	none	NaN	NaN
109	8	46	62	kitchen	labelme_kxvouciolcpqplr.tif	589201.643230	589201.901815	589202.583704	7.842185e-01	52	none	NaN	NaN
109	8	47	78	kitchen	sun_adgqasybjyktddhj.tif	589203.353262	589203.611847	589204.293793	8.426178e-01	68	none	NaN	NaN
109	8	48	82	kitchen	sun_aenotlpyftoioydp.tif	589205.063287	589205.321874	589206.003837	6.757628e-01	72	37	589206.781098	1
109	8	49	90	kitchen	sun_ahdycvpopffkzzsu.tif	589207.557423	589207.816018	589208.497966	7.425048e-01	80	none	NaN	NaN
109	8	50	107	kitchen	sun_axyyrmzcupyhlivc.tif	589209.267453	589209.526046	589210.208016	6.841055e-01	97	none	NaN	NaN
109	8	51	109	kitchen	sun_aypmqwcualkenuoe.tif	589210.977483	589211.236079	589211.917911	7.758758e-01	99	none	NaN	NaN
109	8	52	75	kitchen	sun_acgtpgfybqjmzeyw.tif	589212.687517	589212.946102	589213.627937	7.174765e-01	65	none	NaN	NaN
109	8	53	76	kitchen	sun_acwjdupvyjsugpay.tif	589214.397542	589214.656131	589215.338119	6.757628e-01	66	none	NaN	NaN
109	8	54	66	kitchen	sun_aapllqyqlykszopd.tif	589216.107571	589216.366161	589217.047961	6.507345e-01	56	none	NaN	NaN
109	8	55	107	kitchen	sun_axyyrmzcupyhlivc.tif	589217.817599	589218.076194	589218.758053	7.007910e-01	97	37	589219.341186	1
109	8	56	64	kitchen	sun_aadbddgrdsjugojn.tif	589220.119882	589220.378473	589221.060394	8.259323e-01	54	37	589221.668815	1
109	8	57	101	kitchen	sun_aqeaevwwwjoqhzvl.tif	589222.447187	589222.705777	589223.387743	6.924483e-01	91	none	NaN	NaN
109	8	58	79	kitchen	sun_admlmbcdswaszruo.tif	589224.157221	589224.415810	589225.097685	7.258193e-01	69	none	NaN	NaN
109	8	59	61	kitchen	labelme_brsyyvweiuaazfr.tif	589225.867249	589226.125840	589226.807782	7.591903e-01	51	none	NaN	NaN
109	8	60	92	kitchen	sun_ahpczsiumwwocjkv.tif	589227.577277	589227.835868	589228.517648	7.591903e-01	82	none	NaN	NaN
109	8	61	63	kitchen	labelme_rykdqxenmhulbdn.tif	589229.287306	589229.545899	589230.227876	7.341620e-01	53	none	NaN	NaN
109	8	62	93	kitchen	sun_ahspylgoovwmwvgk.tif	589230.997333	589231.255923	589231.937818	7.258193e-01	83	none	NaN	NaN
109	8	63	106	kitchen	sun_awcpdzzznmweyyhv.tif	589232.707365	589232.965953	589233.647858	6.924483e-01	96	none	NaN	NaN
109	8	64	83	kitchen	sun_aeqdocilnnpuvuhx.tif	589234.417388	589234.675987	589235.357968	6.841055e-01	73	none	NaN	NaN
109	8	65	70	kitchen	sun_abdxkyyxwfskuaqb.tif	589236.127419	589236.386008	589237.067887	7.007910e-01	60	none	NaN	NaN
109	8	66	84	kitchen	sun_aexklacwqwezaorf.tif	589237.837450	589238.096036	589238.778006	7.758758e-01	74	none	NaN	NaN
109	8	67	78	kitchen	sun_adgqasybjyktddhj.tif	589239.547479	589239.806069	589240.488023	7.925613e-01	68	none	NaN	NaN
109	8	68	77	kitchen	sun_acxkpeoqbwcxfvip.tif	589241.257507	589241.516094	589242.197944	7.842185e-01	67	none	NaN	NaN
109	8	69	74	kitchen	sun_acfmftudsenhrfhy.tif	589242.967535	589243.226126	589243.907937	8.092468e-01	64	none	NaN	NaN
109	8	70	94	kitchen	sun_ahywdevtimnqcsln.tif	589244.677564	589244.936156	589245.618066	7.091338e-01	84	39	589246.476996	1
109	8	71	95	kitchen	sun_aixorpehvfykdynp.tif	589247.255117	589247.513709	589248.195508	6.674200e-01	85	39	589249.108964	1
109	8	72	73	kitchen	sun_abrcnpqqhmjwekyf.tif	589249.882725	589250.141314	589250.823150	8.009040e-01	63	37	589251.413001	1
109	8	73	88	kitchen	sun_agubuxuukhzyzpdp.tif	589252.185006	589252.443598	589253.125439	8.175895e-01	78	none	NaN	NaN
109	8	74	98	kitchen	sun_akchetnepxlcxhsu.tif	589253.895036	589254.153624	589254.835608	8.009040e-01	88	none	NaN	NaN
109	8	75	80	kitchen	sun_aegoxogugdkwpmpj.tif	589255.605062	589255.863657	589256.545527	6.674200e-01	70	37	589258.613016	0
109	8	76	65	kitchen	sun_aamedkxepzlwuxes.tif	589259.383812	589259.642402	589260.324326	7.675330e-01	55	none	NaN	NaN
109	8	77	103	kitchen	sun_aunzlwrbjumxhwdj.tif	589261.093843	589261.352430	589262.034397	7.425048e-01	93	none	NaN	NaN
109	8	78	86	kitchen	sun_aggjlwcdjsjcaemh.tif	589262.803866	589263.062458	589263.744358	8.092468e-01	76	none	NaN	NaN
109	8	79	71	kitchen	sun_abftihopvusyfakt.tif	589264.513897	589264.772486	589265.454341	7.425048e-01	61	none	NaN	NaN
109	8	80	81	kitchen	sun_aehawpgmrlhlvcow.tif	589266.223924	589266.482514	589267.164466	8.342750e-01	71	none	NaN	NaN
109	8	81	96	kitchen	sun_ajcbwwvdlsvjyzje.tif	589267.933955	589268.192541	589268.874324	6.590773e-01	86	none	NaN	NaN
109	8	82	102	kitchen	sun_auaiucuqpdausiva.tif	589269.643987	589269.902572	589270.584491	6.924483e-01	92	none	NaN	NaN
109	8	83	62	kitchen	labelme_kxvouciolcpqplr.tif	589271.354015	589271.612607	589272.294487	7.341620e-01	52	none	NaN	NaN
109	8	84	108	kitchen	sun_aymvwlarqodbwuoc.tif	589273.064044	589273.322631	589274.004582	6.590773e-01	98	none	NaN	NaN
109	8	85	72	kitchen	sun_abpwyqmlzafvklqo.tif	589274.774072	589275.032660	589275.714451	8.175895e-01	62	none	NaN	NaN
109	8	86	87	kitchen	sun_agorklincwxrdtga.tif	589276.484098	589276.742692	589277.424525	7.341620e-01	77	none	NaN	NaN
109	8	87	90	kitchen	sun_ahdycvpopffkzzsu.tif	589278.194128	589278.452718	589279.134507	7.925613e-01	80	none	NaN	NaN
109	8	88	82	kitchen	sun_aenotlpyftoioydp.tif	589279.904160	589280.162749	589280.844673	6.841055e-01	72	none	NaN	NaN
109	8	89	100	kitchen	sun_amjjdeyrggfqgmom.tif	589281.614187	589281.872775	589282.554660	7.174765e-01	90	39	589283.877055	1
109	8	90	67	kitchen	sun_aarfiyshqohlwkmo.tif	589284.650532	589284.909121	589285.591040	7.091338e-01	57	none	NaN	NaN
109	8	91	104	kitchen	sun_auticobqsbwgoppi.tif	589286.360560	589286.619150	589287.301116	8.092468e-01	94	none	NaN	NaN
109	8	92	110	kitchen	sun_azmutvzbxypaceni.tif	589288.070590	589288.329176	589289.011148	7.675330e-01	100	none	NaN	NaN
109	8	93	105	kitchen	sun_avszsnwsbuqfgzbn.tif	589289.780617	589290.039208	589290.720989	8.175895e-01	95	none	NaN	NaN
109	8	94	97	kitchen	sun_ajkqhtgcbgpcwrwn.tif	589291.490644	589291.749228	589292.431211	8.342750e-01	87	none	NaN	NaN
109	8	95	85	kitchen	sun_afuyedyxivkhecmu.tif	589293.200673	589293.459262	589294.141234	8.342750e-01	75	none	NaN	NaN
109	8	96	89	kitchen	sun_agzzivivdpnawacl.tif	589294.910704	589295.169285	589295.851122	7.925613e-01	79	none	NaN	NaN
109	8	97	91	kitchen	sun_ahljzhgcdpomplvg.tif	589296.620726	589296.879321	589297.561240	6.674200e-01	81	none	NaN	NaN
109	8	98	99	kitchen	sun_akcjzhbbjlbogpdi.tif	589298.330760	589298.589352	589299.271338	6.507345e-01	89	none	NaN	NaN
109	8	99	68	kitchen	sun_aaxxjlsuzvqlgylf.tif	589300.040789	589300.299382	589300.981330	6.757628e-01	58	none	NaN	NaN
109	8	100	69	kitchen	sun_abdenxonkemggwsq.tif	589301.750819	589302.009409	589302.691365	6.507345e-01	59	none	NaN	NaN
109	9	1	11	bathroom	labelme_sfxiulhjbhlyiyt.tif	589322.121016	589322.379602	589323.028052	7.758758e-01	1	none	NaN	NaN
109	9	2	24	bathroom	sun_agrwbmhcpmfuwmsg.tif	589323.797680	589324.056258	589324.704727	8.509605e-01	14	none	NaN	NaN
109	9	3	60	bathroom	sun_azqyogdvyhahyram.tif	589325.474342	589325.732929	589326.381371	7.007910e-01	50	none	NaN	NaN
109	9	4	19	bathroom	sun_aclfzgynxzxlbepz.tif	589327.151002	589327.409590	589328.058115	7.925613e-01	9	none	NaN	NaN
109	9	5	14	bathroom	sun_abapwbhyhkfixyex.tif	589328.827660	589329.086253	589329.734866	8.175895e-01	4	none	NaN	NaN
109	9	6	15	bathroom	sun_abjtwfukuwddzted.tif	589330.504326	589330.762919	589331.411443	6.924483e-01	5	39	589332.245268	1
109	9	7	21	bathroom	sun_aggnnqpdorgxpvce.tif	589333.023489	589333.282081	589333.930633	7.508475e-01	11	none	NaN	NaN
109	9	8	38	bathroom	sun_anhioqovhscjqqwb.tif	589334.700171	589334.958744	589335.607345	6.507345e-01	28	none	NaN	NaN
109	9	9	44	bathroom	sun_apkruvsevgegsdwp.tif	589336.376817	589336.635405	589337.283866	6.590773e-01	34	none	NaN	NaN
109	9	10	56	bathroom	sun_awnqiikzaispgmwo.tif	589338.053475	589338.312066	589338.960581	6.590773e-01	46	none	NaN	NaN
109	9	11	16	bathroom	sun_acduarbnmmoglmiv.tif	589339.730140	589339.988732	589340.637334	8.259323e-01	6	none	NaN	NaN
109	9	12	45	bathroom	sun_apkxzenqapsujocq.tif	589341.406800	589341.665396	589342.314001	8.009040e-01	35	none	NaN	NaN
109	9	13	18	bathroom	sun_acgyywnybuveqsro.tif	589343.083465	589343.342057	589343.990640	8.426178e-01	8	none	NaN	NaN
109	9	14	20	bathroom	sun_afcoljnjfoxjtgja.tif	589344.760127	589345.018719	589345.667173	7.758758e-01	10	37	589346.437184	1
109	9	15	49	bathroom	sun_asfwthctfqerjvxr.tif	589347.212553	589347.471143	589348.119667	8.092468e-01	39	none	NaN	NaN
109	9	16	31	bathroom	sun_akiytfaagpdsphgz.tif	589348.889219	589349.147809	589349.796217	7.591903e-01	21	none	NaN	NaN
109	9	17	17	bathroom	sun_acegryoqftbzowsg.tif	589350.565883	589350.824472	589351.473107	7.425048e-01	7	none	NaN	NaN
109	9	18	54	bathroom	sun_auzqhkafidnkrwmo.tif	589352.242545	589352.501139	589353.149730	8.509605e-01	44	none	NaN	NaN
109	9	19	50	bathroom	sun_aspsyogrekjtfozg.tif	589353.919211	589354.177799	589354.826307	8.175895e-01	40	none	NaN	NaN
109	9	20	34	bathroom	sun_alkosphxlxwjwgjd.tif	589355.595868	589355.854461	589356.502884	7.341620e-01	24	37	589357.181103	1
109	9	21	53	bathroom	sun_ausgutylgojavyoq.tif	589357.956541	589358.215136	589358.863563	6.841055e-01	43	none	NaN	NaN
109	9	22	13	bathroom	sun_aavhrsfjbserjtht.tif	589359.633206	589359.891793	589360.540300	6.674200e-01	3	none	NaN	NaN
109	9	23	52	bathroom	sun_aunuadmjocsddsrl.tif	589361.309871	589361.568485	589362.217069	6.507345e-01	42	none	NaN	NaN
109	9	24	12	bathroom	sun_aapitsgbtktqubfy.tif	589362.986532	589363.245122	589363.893621	7.591903e-01	2	none	NaN	NaN
109	9	25	39	bathroom	sun_anryaplzeujmzfkd.tif	589364.663195	589364.921785	589365.570372	7.341620e-01	29	none	NaN	NaN
109	9	26	29	bathroom	sun_ahqjwnzgolcaoidx.tif	589366.339859	589366.598448	589367.247042	7.091338e-01	19	none	NaN	NaN
109	9	27	26	bathroom	sun_ahaulkltgpkeeemi.tif	589368.016522	589368.275106	589368.923642	6.674200e-01	16	37	589369.701185	1
109	9	28	51	bathroom	sun_atstyziqcmkahyxk.tif	589370.477291	589370.735882	589371.384422	7.091338e-01	41	none	NaN	NaN
109	9	29	41	bathroom	sun_aoybiabnpadelefl.tif	589372.153953	589372.412541	589373.061150	7.842185e-01	31	none	NaN	NaN
109	9	30	28	bathroom	sun_ahijqszoswveeyji.tif	589373.830615	589374.089166	589374.737772	7.425048e-01	18	none	NaN	NaN
109	9	31	57	bathroom	sun_axldvoqbuvuggfmq.tif	589375.507275	589375.765871	589376.414275	7.925613e-01	47	none	NaN	NaN
109	9	32	32	bathroom	sun_aleqenyvunhactkl.tif	589377.183941	589377.442530	589378.091090	6.924483e-01	22	39	589379.605179	1
109	9	33	25	bathroom	sun_agyqfjcfkdcydepw.tif	589380.378773	589380.637367	589381.285903	8.009040e-01	15	none	NaN	NaN
109	9	34	30	bathroom	sun_ajlawzvmubibwbpy.tif	589382.055440	589382.314027	589382.962505	8.259323e-01	20	none	NaN	NaN
109	9	35	58	bathroom	sun_axxbkopsgyouuebh.tif	589383.732101	589383.990694	589384.639247	7.508475e-01	48	none	NaN	NaN
109	9	36	48	bathroom	sun_aqrpegblszgcoujh.tif	589385.408761	589385.667352	589386.315889	7.675330e-01	38	none	NaN	NaN
109	9	37	36	bathroom	sun_ambriybtogmepttm.tif	589387.085422	589387.344015	589387.992505	8.175895e-01	26	none	NaN	NaN
109	9	38	33	bathroom	sun_aljolscmmzydegqp.tif	589388.762090	589389.020674	589389.669300	7.675330e-01	23	none	NaN	NaN
109	9	39	42	bathroom	sun_apeeialkgkuxddgh.tif	589390.438751	589390.697340	589391.345909	7.842185e-01	32	none	NaN	NaN
109	9	40	55	bathroom	sun_avhrdrntsqrjzccq.tif	589392.115414	589392.374006	589393.022593	6.757628e-01	45	37	589393.709152	1
109	9	41	46	bathroom	sun_apmqjbnwghzuhhzh.tif	589394.484431	589394.743013	589395.391564	6.841055e-01	36	none	NaN	NaN
109	9	42	22	bathroom	sun_agguqiubmwhqqunb.tif	589396.161091	589396.419681	589397.068290	6.590773e-01	12	none	NaN	NaN
109	9	43	27	bathroom	sun_ahcvzmoyaycdoftf.tif	589397.837750	589398.096340	589398.744955	6.757628e-01	17	none	NaN	NaN
109	9	44	47	bathroom	sun_apynckhmoftszqoq.tif	589399.514414	589399.773001	589400.421444	6.841055e-01	37	none	NaN	NaN
109	9	45	59	bathroom	sun_axyrejkiiaqiurjk.tif	589401.191077	589401.449665	589402.098253	7.425048e-01	49	none	NaN	NaN
109	9	46	35	bathroom	sun_alotolagknyrgtsk.tif	589402.867738	589403.126330	589403.774760	6.674200e-01	25	37	589404.348995	1
109	9	47	40	bathroom	sun_aofnryafpsjimzsb.tif	589405.119973	589405.378563	589406.027123	7.091338e-01	30	39	589406.909193	1
109	9	48	23	bathroom	sun_aghyqhbptboemmoq.tif	589407.680848	589407.939435	589408.588055	7.842185e-01	13	none	NaN	NaN
109	9	49	43	bathroom	sun_apjevzvycyhuqghb.tif	589409.357512	589409.616095	589410.264587	6.674200e-01	33	none	NaN	NaN
109	9	50	37	bathroom	sun_amzlamotzwfkwjco.tif	589411.034167	589411.292755	589411.941220	8.092468e-01	27	none	NaN	NaN
