subject	block	trial	texture	category	image	trialOnset	itiOnset	trialEnd	iti	EEGtrigger	responseKey	responseTime	accuracy
113	1	1	13	bathroom	sun_aavhrsfjbserjtht.tif	501705.554245	501705.812832	501706.553134	7.507150e-01	3	none	NaN	NaN
113	1	2	49	bathroom	sun_asfwthctfqerjvxr.tif	501707.322664	501707.581251	501708.321461	8.424691e-01	39	none	NaN	NaN
113	1	3	25	bathroom	sun_agyqfjcfkdcydepw.tif	501709.091082	501709.349663	501710.089814	6.589610e-01	15	39	501712.898664	1
113	1	4	38	bathroom	sun_anhioqovhscjqqwb.tif	501713.670619	501713.929211	501714.669263	7.840801e-01	28	none	NaN	NaN
113	1	5	37	bathroom	sun_amzlamotzwfkwjco.tif	501715.439028	501715.697628	501716.437844	7.173499e-01	27	none	NaN	NaN
113	1	6	16	bathroom	sun_acduarbnmmoglmiv.tif	501717.207456	501717.466043	501718.206104	6.923261e-01	6	none	NaN	NaN
113	1	7	41	bathroom	sun_aoybiabnpadelefl.tif	501718.975876	501719.234466	501719.974628	6.923261e-01	31	39	501724.650476	1
113	1	8	55	bathroom	sun_avhrdrntsqrjzccq.tif	501725.423924	501725.682515	501726.422690	6.923261e-01	45	none	NaN	NaN
113	1	9	60	bathroom	sun_azqyogdvyhahyram.tif	501727.192349	501727.450937	501728.191072	7.423737e-01	50	37	501729.682877	1
113	1	10	29	bathroom	sun_ahqjwnzgolcaoidx.tif	501730.453919	501730.712506	501731.452683	7.340325e-01	19	none	NaN	NaN
113	1	11	15	bathroom	sun_abjtwfukuwddzted.tif	501732.222336	501732.480917	501733.221096	8.341278e-01	5	39	501735.634681	0
113	1	12	39	bathroom	sun_anryaplzeujmzfkd.tif	501736.409813	501736.668403	501737.408456	6.756435e-01	29	none	NaN	NaN
113	1	13	17	bathroom	sun_acegryoqftbzowsg.tif	501738.178231	501738.436824	501739.176955	8.091040e-01	7	none	NaN	NaN
113	1	14	30	bathroom	sun_ajlawzvmubibwbpy.tif	501739.946656	501740.205240	501740.945378	8.174452e-01	20	none	NaN	NaN
113	1	15	23	bathroom	sun_aghyqhbptboemmoq.tif	501741.715067	501741.973664	501742.713831	7.840801e-01	13	none	NaN	NaN
113	1	16	53	bathroom	sun_ausgutylgojavyoq.tif	501743.483493	501743.742080	501744.482262	7.507150e-01	43	none	NaN	NaN
113	1	17	59	bathroom	sun_axyrejkiiaqiurjk.tif	501745.251906	501745.510502	501746.250745	7.423737e-01	49	none	NaN	NaN
113	1	18	58	bathroom	sun_axxbkopsgyouuebh.tif	501747.020328	501747.278914	501748.019118	7.340325e-01	48	none	NaN	NaN
113	1	19	14	bathroom	sun_abapwbhyhkfixyex.tif	501748.788743	501749.047330	501749.787420	7.090086e-01	4	none	NaN	NaN
113	1	20	33	bathroom	sun_aljolscmmzydegqp.tif	501750.557167	501750.815753	501751.555970	6.923261e-01	23	none	NaN	NaN
113	1	21	46	bathroom	sun_apmqjbnwghzuhhzh.tif	501752.325582	501752.584176	501753.324367	7.340325e-01	36	37	501755.194695	0
113	1	22	18	bathroom	sun_acgyywnybuveqsro.tif	501755.970861	501756.229448	501756.969541	6.756435e-01	8	none	NaN	NaN
113	1	23	19	bathroom	sun_aclfzgynxzxlbepz.tif	501757.739280	501757.997871	501758.737924	7.757389e-01	9	none	NaN	NaN
113	1	24	11	bathroom	labelme_sfxiulhjbhlyiyt.tif	501759.507694	501759.766288	501760.506511	6.673022e-01	1	39	501762.866772	1
113	1	25	27	bathroom	sun_ahcvzmoyaycdoftf.tif	501763.645134	501763.903724	501764.643930	8.257865e-01	17	none	NaN	NaN
113	1	26	21	bathroom	sun_aggnnqpdorgxpvce.tif	501765.413550	501765.672143	501766.412369	7.590563e-01	11	none	NaN	NaN
113	1	27	42	bathroom	sun_apeeialkgkuxddgh.tif	501767.181970	501767.440561	501768.180818	7.590563e-01	32	none	NaN	NaN
113	1	28	56	bathroom	sun_awnqiikzaispgmwo.tif	501768.950390	501769.208980	501769.949085	8.174452e-01	46	none	NaN	NaN
113	1	29	44	bathroom	sun_apkruvsevgegsdwp.tif	501770.718804	501770.977396	501771.717605	7.423737e-01	34	none	NaN	NaN
113	1	30	20	bathroom	sun_afcoljnjfoxjtgja.tif	501772.487226	501772.745828	501773.485964	7.173499e-01	10	none	NaN	NaN
113	1	31	28	bathroom	sun_ahijqszoswveeyji.tif	501774.255643	501774.514233	501775.254427	8.424691e-01	18	none	NaN	NaN
113	1	32	26	bathroom	sun_ahaulkltgpkeeemi.tif	501776.024062	501776.282654	501777.022802	7.673976e-01	16	none	NaN	NaN
113	1	33	22	bathroom	sun_agguqiubmwhqqunb.tif	501777.792483	501778.051067	501778.791309	6.923261e-01	12	none	NaN	NaN
113	1	34	47	bathroom	sun_apynckhmoftszqoq.tif	501779.560902	501779.819491	501780.559711	7.590563e-01	37	none	NaN	NaN
113	1	35	45	bathroom	sun_apkxzenqapsujocq.tif	501781.329324	501781.587905	501782.327984	8.174452e-01	35	none	NaN	NaN
113	1	36	34	bathroom	sun_alkosphxlxwjwgjd.tif	501783.097735	501783.356321	501784.096534	8.341278e-01	24	none	NaN	NaN
113	1	37	12	bathroom	sun_aapitsgbtktqubfy.tif	501784.866160	501785.124748	501785.864906	8.091040e-01	2	none	NaN	NaN
113	1	38	52	bathroom	sun_aunuadmjocsddsrl.tif	501786.634573	501786.893167	501787.633322	7.090086e-01	42	none	NaN	NaN
113	1	39	50	bathroom	sun_aspsyogrekjtfozg.tif	501788.402997	501788.661584	501789.401761	7.924214e-01	40	none	NaN	NaN
113	1	40	54	bathroom	sun_auzqhkafidnkrwmo.tif	501790.171417	501790.430000	501791.170201	6.506197e-01	44	none	NaN	NaN
113	1	41	31	bathroom	sun_akiytfaagpdsphgz.tif	501791.939832	501792.198418	501792.938581	6.589610e-01	21	37	501795.498814	0
113	1	42	48	bathroom	sun_aqrpegblszgcoujh.tif	501796.269118	501796.527707	501797.267952	8.091040e-01	38	none	NaN	NaN
113	1	43	35	bathroom	sun_alotolagknyrgtsk.tif	501798.037541	501798.296133	501799.036300	8.007627e-01	25	none	NaN	NaN
113	1	44	24	bathroom	sun_agrwbmhcpmfuwmsg.tif	501799.805957	501800.064549	501800.804658	7.256912e-01	14	none	NaN	NaN
113	1	45	40	bathroom	sun_aofnryafpsjimzsb.tif	501801.574376	501801.832969	501802.573196	7.840801e-01	30	none	NaN	NaN
113	1	46	36	bathroom	sun_ambriybtogmepttm.tif	501803.342795	501803.601383	501804.341642	7.757389e-01	26	none	NaN	NaN
113	1	47	57	bathroom	sun_axldvoqbuvuggfmq.tif	501805.111215	501805.369804	501806.109895	8.257865e-01	47	none	NaN	NaN
113	1	48	43	bathroom	sun_apjevzvycyhuqghb.tif	501806.879632	501807.138221	501807.878272	6.506197e-01	33	none	NaN	NaN
113	1	49	32	bathroom	sun_aleqenyvunhactkl.tif	501808.648053	501808.906641	501809.646745	7.006674e-01	22	none	NaN	NaN
113	1	50	51	bathroom	sun_atstyziqcmkahyxk.tif	501810.416472	501810.675062	501811.415244	8.007627e-01	41	none	NaN	NaN
113	1	51	59	bathroom	sun_axyrejkiiaqiurjk.tif	501812.184893	501812.443474	501813.183693	7.006674e-01	49	none	NaN	NaN
113	1	52	11	bathroom	labelme_sfxiulhjbhlyiyt.tif	501813.953307	501814.211900	501814.951992	7.340325e-01	1	none	NaN	NaN
113	1	53	25	bathroom	sun_agyqfjcfkdcydepw.tif	501815.721729	501815.980314	501816.720488	7.507150e-01	15	none	NaN	NaN
113	1	54	16	bathroom	sun_acduarbnmmoglmiv.tif	501817.490148	501817.748733	501818.488934	7.173499e-01	6	none	NaN	NaN
113	1	55	21	bathroom	sun_aggnnqpdorgxpvce.tif	501819.258568	501819.517154	501820.257277	7.590563e-01	11	none	NaN	NaN
113	1	56	51	bathroom	sun_atstyziqcmkahyxk.tif	501821.026982	501821.285568	501822.025721	7.924214e-01	41	none	NaN	NaN
113	1	57	32	bathroom	sun_aleqenyvunhactkl.tif	501822.795403	501823.053995	501823.794162	7.924214e-01	22	none	NaN	NaN
113	1	58	33	bathroom	sun_aljolscmmzydegqp.tif	501824.563823	501824.822409	501825.562521	7.673976e-01	23	none	NaN	NaN
113	1	59	18	bathroom	sun_acgyywnybuveqsro.tif	501826.332238	501826.590832	501827.331061	7.090086e-01	8	none	NaN	NaN
113	1	60	36	bathroom	sun_ambriybtogmepttm.tif	501828.100658	501828.359248	501829.099423	7.840801e-01	26	none	NaN	NaN
113	1	61	13	bathroom	sun_aavhrsfjbserjtht.tif	501829.869079	501830.127667	501830.867850	8.508104e-01	3	none	NaN	NaN
113	1	62	56	bathroom	sun_awnqiikzaispgmwo.tif	501831.637496	501831.896084	501832.636247	7.757389e-01	46	37	501836.746766	0
113	1	63	14	bathroom	sun_abapwbhyhkfixyex.tif	501837.518322	501837.776905	501838.517052	6.589610e-01	4	none	NaN	NaN
113	1	64	45	bathroom	sun_apkxzenqapsujocq.tif	501839.286740	501839.545327	501840.285595	8.091040e-01	35	none	NaN	NaN
113	1	65	38	bathroom	sun_anhioqovhscjqqwb.tif	501841.055158	501841.313753	501842.053868	8.257865e-01	28	37	501843.922821	1
113	1	66	44	bathroom	sun_apkruvsevgegsdwp.tif	501844.700437	501844.959030	501845.699263	8.007627e-01	34	37	501847.298823	1
113	1	67	35	bathroom	sun_alotolagknyrgtsk.tif	501848.070443	501848.329032	501849.069196	6.673022e-01	25	none	NaN	NaN
113	1	68	55	bathroom	sun_avhrdrntsqrjzccq.tif	501849.838860	501850.097458	501850.837524	6.756435e-01	45	39	501853.138766	1
113	1	69	22	bathroom	sun_agguqiubmwhqqunb.tif	501853.909560	501854.168151	501854.908343	6.839848e-01	12	none	NaN	NaN
113	1	70	24	bathroom	sun_agrwbmhcpmfuwmsg.tif	501855.677981	501855.936572	501856.676816	7.423737e-01	14	none	NaN	NaN
113	1	71	47	bathroom	sun_apynckhmoftszqoq.tif	501857.446400	501857.704986	501858.445157	8.341278e-01	37	none	NaN	NaN
113	1	72	53	bathroom	sun_ausgutylgojavyoq.tif	501859.214819	501859.473366	501860.213615	7.590563e-01	43	none	NaN	NaN
113	1	73	15	bathroom	sun_abjtwfukuwddzted.tif	501860.983237	501861.241826	501861.981895	8.007627e-01	5	none	NaN	NaN
113	1	74	28	bathroom	sun_ahijqszoswveeyji.tif	501862.751654	501863.010245	501863.750457	7.256912e-01	18	none	NaN	NaN
113	1	75	26	bathroom	sun_ahaulkltgpkeeemi.tif	501864.520073	501864.778659	501865.518765	8.174452e-01	16	37	501866.986791	1
113	1	76	58	bathroom	sun_axxbkopsgyouuebh.tif	501867.764955	501868.023543	501868.763657	6.839848e-01	48	none	NaN	NaN
113	1	77	17	bathroom	sun_acegryoqftbzowsg.tif	501869.533376	501869.791963	501870.532153	6.839848e-01	7	37	501873.890765	1
113	1	78	54	bathroom	sun_auzqhkafidnkrwmo.tif	501874.663455	501874.922045	501875.662197	8.341278e-01	44	none	NaN	NaN
113	1	79	30	bathroom	sun_ajlawzvmubibwbpy.tif	501876.431876	501876.690468	501877.430520	7.173499e-01	20	none	NaN	NaN
113	1	80	19	bathroom	sun_aclfzgynxzxlbepz.tif	501878.200298	501878.458882	501879.199143	8.257865e-01	9	none	NaN	NaN
113	1	81	60	bathroom	sun_azqyogdvyhahyram.tif	501879.968715	501880.227308	501880.967515	7.256912e-01	50	none	NaN	NaN
113	1	82	50	bathroom	sun_aspsyogrekjtfozg.tif	501881.737130	501881.995720	501882.735921	7.757389e-01	40	none	NaN	NaN
113	1	83	42	bathroom	sun_apeeialkgkuxddgh.tif	501883.505547	501883.764141	501884.504265	7.006674e-01	32	none	NaN	NaN
113	1	84	49	bathroom	sun_asfwthctfqerjvxr.tif	501885.273972	501885.532559	501886.272680	7.673976e-01	39	none	NaN	NaN
113	1	85	27	bathroom	sun_ahcvzmoyaycdoftf.tif	501887.042390	501887.300975	501888.041249	7.006674e-01	17	none	NaN	NaN
113	1	86	12	bathroom	sun_aapitsgbtktqubfy.tif	501888.810806	501889.069394	501889.809509	7.256912e-01	2	none	NaN	NaN
113	1	87	23	bathroom	sun_aghyqhbptboemmoq.tif	501890.579228	501890.837815	501891.577913	6.506197e-01	13	39	501893.994473	1
113	1	88	20	bathroom	sun_afcoljnjfoxjtgja.tif	501894.766707	501895.025298	501895.765457	8.424691e-01	10	none	NaN	NaN
113	1	89	40	bathroom	sun_aofnryafpsjimzsb.tif	501896.535127	501896.793676	501897.533978	6.589610e-01	30	none	NaN	NaN
113	1	90	39	bathroom	sun_anryaplzeujmzfkd.tif	501898.303543	501898.562137	501899.302437	6.839848e-01	29	none	NaN	NaN
113	1	91	43	bathroom	sun_apjevzvycyhuqghb.tif	501900.071960	501900.330555	501901.070631	8.257865e-01	33	none	NaN	NaN
113	1	92	34	bathroom	sun_alkosphxlxwjwgjd.tif	501901.840381	501902.098974	501902.839218	6.673022e-01	24	none	NaN	NaN
113	1	93	41	bathroom	sun_aoybiabnpadelefl.tif	501903.608799	501903.867392	501904.607509	8.424691e-01	31	none	NaN	NaN
113	1	94	46	bathroom	sun_apmqjbnwghzuhhzh.tif	501905.377216	501905.635804	501906.376014	6.756435e-01	36	none	NaN	NaN
113	1	95	57	bathroom	sun_axldvoqbuvuggfmq.tif	501907.145637	501907.404226	501908.144446	8.508104e-01	47	none	NaN	NaN
113	1	96	31	bathroom	sun_akiytfaagpdsphgz.tif	501908.914055	501909.172642	501909.912791	7.507150e-01	21	37	501911.994606	1
113	1	97	37	bathroom	sun_amzlamotzwfkwjco.tif	501912.767877	501913.026465	501913.766732	7.090086e-01	27	none	NaN	NaN
113	1	98	29	bathroom	sun_ahqjwnzgolcaoidx.tif	501914.536296	501914.794889	501915.534960	7.673976e-01	19	none	NaN	NaN
113	1	99	52	bathroom	sun_aunuadmjocsddsrl.tif	501916.304710	501916.563302	501917.303522	7.924214e-01	42	none	NaN	NaN
113	1	100	48	bathroom	sun_aqrpegblszgcoujh.tif	501918.073130	501918.331723	501919.071872	6.673022e-01	38	none	NaN	NaN
113	2	1	62	kitchen	labelme_kxvouciolcpqplr.tif	501925.897553	501926.156134	501926.846303	8.257865e-01	52	none	NaN	NaN
113	2	2	82	kitchen	sun_aenotlpyftoioydp.tif	501927.615913	501927.874508	501928.564577	7.006674e-01	72	none	NaN	NaN
113	2	3	80	kitchen	sun_aegoxogugdkwpmpj.tif	501929.334288	501929.592876	501930.283030	8.257865e-01	70	none	NaN	NaN
113	2	4	84	kitchen	sun_aexklacwqwezaorf.tif	501931.052659	501931.311246	501932.001342	7.507150e-01	74	none	NaN	NaN
113	2	5	88	kitchen	sun_agubuxuukhzyzpdp.tif	501932.771021	501933.029616	501933.719667	7.423737e-01	78	none	NaN	NaN
113	2	6	85	kitchen	sun_afuyedyxivkhecmu.tif	501934.489396	501934.747985	501935.438126	7.924214e-01	75	37	501964.226682	1
113	2	7	73	kitchen	sun_abrcnpqqhmjwekyf.tif	501965.002960	501965.261550	501965.951655	7.590563e-01	63	none	NaN	NaN
113	2	8	99	kitchen	sun_akcjzhbbjlbogpdi.tif	501966.721328	501966.979912	501967.669937	7.256912e-01	89	none	NaN	NaN
113	2	9	75	kitchen	sun_acgtpgfybqjmzeyw.tif	501968.439698	501968.698288	501969.388374	7.590563e-01	65	none	NaN	NaN
113	2	10	92	kitchen	sun_ahpczsiumwwocjkv.tif	501970.158069	501970.416657	501971.106729	7.590563e-01	82	none	NaN	NaN
113	2	11	67	kitchen	sun_aarfiyshqohlwkmo.tif	501971.876436	501972.135023	501972.825142	7.507150e-01	57	37	501974.138611	1
113	2	12	89	kitchen	sun_agzzivivdpnawacl.tif	501974.912772	501975.171368	501975.861433	7.090086e-01	79	none	NaN	NaN
113	2	13	87	kitchen	sun_agorklincwxrdtga.tif	501976.622802	501976.881395	501977.571543	8.341278e-01	77	none	NaN	NaN
113	2	14	70	kitchen	sun_abdxkyyxwfskuaqb.tif	501978.341175	501978.599770	501979.289915	7.006674e-01	60	none	NaN	NaN
113	2	15	69	kitchen	sun_abdenxonkemggwsq.tif	501980.059543	501980.318129	501981.008264	6.506197e-01	59	none	NaN	NaN
113	2	16	66	kitchen	sun_aapllqyqlykszopd.tif	501981.777911	501982.036502	501982.726532	7.340325e-01	56	37	501983.890704	0
113	2	17	104	kitchen	sun_auticobqsbwgoppi.tif	501984.664104	501984.922694	501985.612838	8.007627e-01	94	none	NaN	NaN
113	2	18	90	kitchen	sun_ahdycvpopffkzzsu.tif	501986.382474	501986.641063	501987.331289	6.839848e-01	80	none	NaN	NaN
113	2	19	96	kitchen	sun_ajcbwwvdlsvjyzje.tif	501988.100846	501988.359433	501989.049577	6.923261e-01	86	none	NaN	NaN
113	2	20	65	kitchen	sun_aamedkxepzlwuxes.tif	501989.819211	501990.077800	501990.767965	7.090086e-01	55	none	NaN	NaN
113	2	21	106	kitchen	sun_awcpdzzznmweyyhv.tif	501991.537581	501991.796166	501992.486279	7.673976e-01	96	none	NaN	NaN
113	2	22	83	kitchen	sun_aeqdocilnnpuvuhx.tif	501993.255952	501993.514540	501994.204596	8.424691e-01	73	none	NaN	NaN
113	2	23	64	kitchen	sun_aadbddgrdsjugojn.tif	501994.974323	501995.232910	501995.922921	7.840801e-01	54	none	NaN	NaN
113	2	24	61	kitchen	labelme_brsyyvweiuaazfr.tif	501996.692684	501996.951276	501997.641465	7.173499e-01	51	none	NaN	NaN
113	2	25	107	kitchen	sun_axyyrmzcupyhlivc.tif	501998.411054	501998.669650	501999.359830	7.340325e-01	97	none	NaN	NaN
113	2	26	91	kitchen	sun_ahljzhgcdpomplvg.tif	502000.129426	502000.388017	502001.078146	6.589610e-01	81	none	NaN	NaN
113	2	27	94	kitchen	sun_ahywdevtimnqcsln.tif	502001.847796	502002.106384	502002.796385	7.507150e-01	84	none	NaN	NaN
113	2	28	78	kitchen	sun_adgqasybjyktddhj.tif	502003.566169	502003.824754	502004.514776	7.256912e-01	68	none	NaN	NaN
113	2	29	102	kitchen	sun_auaiucuqpdausiva.tif	502005.284537	502005.543124	502006.233156	6.923261e-01	92	none	NaN	NaN
113	2	30	95	kitchen	sun_aixorpehvfykdynp.tif	502007.002903	502007.261491	502007.951656	6.673022e-01	85	none	NaN	NaN
113	2	31	81	kitchen	sun_aehawpgmrlhlvcow.tif	502008.721263	502008.979860	502009.669933	7.006674e-01	71	39	502011.610789	1
113	2	32	74	kitchen	sun_acfmftudsenhrfhy.tif	502012.383232	502012.641826	502013.331994	8.341278e-01	64	37	502014.498774	1
113	2	33	72	kitchen	sun_abpwyqmlzafvklqo.tif	502015.269425	502015.528018	502016.218055	7.090086e-01	62	none	NaN	NaN
113	2	34	109	kitchen	sun_aypmqwcualkenuoe.tif	502016.987797	502017.246382	502017.936424	7.173499e-01	99	37	502018.906756	1
113	2	35	63	kitchen	labelme_rykdqxenmhulbdn.tif	502019.682129	502019.940727	502020.630768	7.757389e-01	53	none	NaN	NaN
113	2	36	105	kitchen	sun_avszsnwsbuqfgzbn.tif	502021.400498	502021.659087	502022.349275	7.090086e-01	95	none	NaN	NaN
113	2	37	98	kitchen	sun_akchetnepxlcxhsu.tif	502023.118866	502023.377466	502024.067617	8.091040e-01	88	none	NaN	NaN
113	2	38	86	kitchen	sun_aggjlwcdjsjcaemh.tif	502024.837242	502025.095828	502025.785988	6.673022e-01	76	none	NaN	NaN
113	2	39	68	kitchen	sun_aaxxjlsuzvqlgylf.tif	502026.555608	502026.814194	502027.504206	7.590563e-01	58	none	NaN	NaN
113	2	40	71	kitchen	sun_abftihopvusyfakt.tif	502028.273975	502028.532568	502029.222572	8.424691e-01	61	none	NaN	NaN
113	2	41	93	kitchen	sun_ahspylgoovwmwvgk.tif	502029.992347	502030.250933	502030.940994	7.673976e-01	83	39	502033.618790	1
113	2	42	100	kitchen	sun_amjjdeyrggfqgmom.tif	502034.396709	502034.655300	502035.345394	8.174452e-01	90	none	NaN	NaN
113	2	43	108	kitchen	sun_aymvwlarqodbwuoc.tif	502036.115082	502036.373667	502037.063722	6.756435e-01	98	none	NaN	NaN
113	2	44	76	kitchen	sun_acwjdupvyjsugpay.tif	502037.833448	502038.092042	502038.782159	7.840801e-01	66	none	NaN	NaN
113	2	45	97	kitchen	sun_ajkqhtgcbgpcwrwn.tif	502039.551816	502039.810408	502040.500484	7.757389e-01	87	none	NaN	NaN
113	2	46	79	kitchen	sun_admlmbcdswaszruo.tif	502041.270188	502041.528775	502042.218933	8.257865e-01	69	none	NaN	NaN
113	2	47	77	kitchen	sun_acxkpeoqbwcxfvip.tif	502042.988556	502043.247147	502043.937340	7.924214e-01	67	none	NaN	NaN
113	2	48	103	kitchen	sun_aunzlwrbjumxhwdj.tif	502044.706924	502044.965513	502045.655629	7.840801e-01	93	none	NaN	NaN
113	2	49	110	kitchen	sun_azmutvzbxypaceni.tif	502046.425298	502046.683885	502047.373985	8.007627e-01	100	none	NaN	NaN
113	2	50	101	kitchen	sun_aqeaevwwwjoqhzvl.tif	502048.143663	502048.402255	502049.092439	7.173499e-01	91	none	NaN	NaN
113	2	51	88	kitchen	sun_agubuxuukhzyzpdp.tif	502049.862036	502050.120621	502050.810758	8.174452e-01	78	none	NaN	NaN
113	2	52	92	kitchen	sun_ahpczsiumwwocjkv.tif	502051.580402	502051.838994	502052.529041	6.923261e-01	82	39	502055.954757	1
113	2	53	66	kitchen	sun_aapllqyqlykszopd.tif	502056.727163	502056.985757	502057.675750	8.091040e-01	56	none	NaN	NaN
113	2	54	102	kitchen	sun_auaiucuqpdausiva.tif	502058.445538	502058.704123	502059.394175	7.924214e-01	92	37	502060.610710	1
113	2	55	78	kitchen	sun_adgqasybjyktddhj.tif	502061.381780	502061.640370	502062.330445	7.924214e-01	68	none	NaN	NaN
113	2	56	68	kitchen	sun_aaxxjlsuzvqlgylf.tif	502063.100148	502063.358737	502064.048767	6.756435e-01	58	none	NaN	NaN
113	2	57	62	kitchen	labelme_kxvouciolcpqplr.tif	502064.818517	502065.077099	502065.767201	6.589610e-01	52	none	NaN	NaN
113	2	58	100	kitchen	sun_amjjdeyrggfqgmom.tif	502066.528544	502066.787137	502067.477225	6.923261e-01	90	none	NaN	NaN
113	2	59	74	kitchen	sun_acfmftudsenhrfhy.tif	502068.246915	502068.505507	502069.195587	7.173499e-01	64	none	NaN	NaN
113	2	60	109	kitchen	sun_aypmqwcualkenuoe.tif	502069.965281	502070.223875	502070.913964	8.424691e-01	99	none	NaN	NaN
113	2	61	105	kitchen	sun_avszsnwsbuqfgzbn.tif	502071.683652	502071.942240	502072.632389	7.590563e-01	95	none	NaN	NaN
113	2	62	67	kitchen	sun_aarfiyshqohlwkmo.tif	502073.402022	502073.660614	502074.350759	6.839848e-01	57	none	NaN	NaN
113	2	63	83	kitchen	sun_aeqdocilnnpuvuhx.tif	502075.120388	502075.378980	502076.069090	6.673022e-01	73	none	NaN	NaN
113	2	64	90	kitchen	sun_ahdycvpopffkzzsu.tif	502076.838762	502077.097348	502077.787455	6.756435e-01	80	none	NaN	NaN
113	2	65	75	kitchen	sun_acgtpgfybqjmzeyw.tif	502078.557125	502078.815720	502079.505919	7.757389e-01	65	none	NaN	NaN
113	2	66	101	kitchen	sun_aqeaevwwwjoqhzvl.tif	502080.275499	502080.534089	502081.224253	7.757389e-01	91	none	NaN	NaN
113	2	67	82	kitchen	sun_aenotlpyftoioydp.tif	502081.993863	502082.252458	502082.942459	6.839848e-01	72	39	502085.530609	1
113	2	68	97	kitchen	sun_ajkqhtgcbgpcwrwn.tif	502086.306472	502086.565060	502087.255237	7.006674e-01	87	none	NaN	NaN
113	2	69	77	kitchen	sun_acxkpeoqbwcxfvip.tif	502088.024840	502088.283427	502088.973463	7.340325e-01	67	none	NaN	NaN
113	2	70	63	kitchen	labelme_rykdqxenmhulbdn.tif	502089.743211	502090.001799	502090.691996	7.423737e-01	53	none	NaN	NaN
113	2	71	87	kitchen	sun_agorklincwxrdtga.tif	502091.461581	502091.720169	502092.410175	8.341278e-01	77	none	NaN	NaN
113	2	72	84	kitchen	sun_aexklacwqwezaorf.tif	502093.179948	502093.438540	502094.128535	7.673976e-01	74	none	NaN	NaN
113	2	73	94	kitchen	sun_ahywdevtimnqcsln.tif	502094.898318	502095.156910	502095.846947	6.923261e-01	84	37	502097.194599	1
113	2	74	65	kitchen	sun_aamedkxepzlwuxes.tif	502097.968028	502098.226612	502098.916802	8.508104e-01	55	none	NaN	NaN
113	2	75	96	kitchen	sun_ajcbwwvdlsvjyzje.tif	502099.686394	502099.944981	502100.635091	7.507150e-01	86	39	502102.770706	1
113	2	76	106	kitchen	sun_awcpdzzznmweyyhv.tif	502103.548551	502103.807141	502104.497349	8.007627e-01	96	none	NaN	NaN
113	2	77	80	kitchen	sun_aegoxogugdkwpmpj.tif	502105.266922	502105.525516	502106.215567	8.257865e-01	70	37	502107.690614	1
113	2	78	95	kitchen	sun_aixorpehvfykdynp.tif	502108.461756	502108.720347	502109.410477	7.423737e-01	85	none	NaN	NaN
113	2	79	81	kitchen	sun_aehawpgmrlhlvcow.tif	502110.180124	502110.438714	502111.128755	8.174452e-01	71	none	NaN	NaN
113	2	80	76	kitchen	sun_acwjdupvyjsugpay.tif	502111.898493	502112.157084	502112.847162	6.589610e-01	66	39	502114.035024	1
113	2	81	61	kitchen	labelme_brsyyvweiuaazfr.tif	502114.809708	502115.068293	502115.758520	8.091040e-01	51	none	NaN	NaN
113	2	82	98	kitchen	sun_akchetnepxlcxhsu.tif	502116.528080	502116.786674	502117.476875	8.007627e-01	88	none	NaN	NaN
113	2	83	91	kitchen	sun_ahljzhgcdpomplvg.tif	502118.246454	502118.505037	502119.195102	6.506197e-01	81	none	NaN	NaN
113	2	84	72	kitchen	sun_abpwyqmlzafvklqo.tif	502119.964818	502120.223411	502120.913443	6.589610e-01	62	none	NaN	NaN
113	2	85	107	kitchen	sun_axyyrmzcupyhlivc.tif	502121.683188	502121.941779	502122.631871	7.423737e-01	97	39	502124.482673	1
113	2	86	104	kitchen	sun_auticobqsbwgoppi.tif	502125.253390	502125.511982	502126.202024	6.839848e-01	94	none	NaN	NaN
113	2	87	108	kitchen	sun_aymvwlarqodbwuoc.tif	502126.971763	502127.230349	502127.920454	7.256912e-01	98	none	NaN	NaN
113	2	88	93	kitchen	sun_ahspylgoovwmwvgk.tif	502128.690131	502128.948716	502129.638864	8.257865e-01	83	none	NaN	NaN
113	2	89	86	kitchen	sun_aggjlwcdjsjcaemh.tif	502130.408497	502130.667088	502131.357128	8.174452e-01	76	none	NaN	NaN
113	2	90	103	kitchen	sun_aunzlwrbjumxhwdj.tif	502132.126870	502132.385455	502133.075590	6.506197e-01	93	none	NaN	NaN
113	2	91	73	kitchen	sun_abrcnpqqhmjwekyf.tif	502133.845238	502134.103824	502134.793868	7.340325e-01	63	none	NaN	NaN
113	2	92	89	kitchen	sun_agzzivivdpnawacl.tif	502135.563607	502135.822194	502136.512320	7.673976e-01	79	none	NaN	NaN
113	2	93	71	kitchen	sun_abftihopvusyfakt.tif	502137.281978	502137.540560	502138.230621	6.756435e-01	61	none	NaN	NaN
113	2	94	85	kitchen	sun_afuyedyxivkhecmu.tif	502139.000348	502139.258931	502139.949147	8.508104e-01	75	none	NaN	NaN
113	2	95	64	kitchen	sun_aadbddgrdsjugojn.tif	502140.718711	502140.977302	502141.667504	6.673022e-01	54	none	NaN	NaN
113	2	96	110	kitchen	sun_azmutvzbxypaceni.tif	502142.437084	502142.695675	502143.385826	8.424691e-01	100	none	NaN	NaN
113	2	97	70	kitchen	sun_abdxkyyxwfskuaqb.tif	502144.155455	502144.414043	502145.104191	8.341278e-01	60	none	NaN	NaN
113	2	98	99	kitchen	sun_akcjzhbbjlbogpdi.tif	502145.873824	502146.132409	502146.822440	7.840801e-01	89	none	NaN	NaN
113	2	99	79	kitchen	sun_admlmbcdswaszruo.tif	502147.592192	502147.850779	502148.540963	8.091040e-01	69	none	NaN	NaN
113	2	100	69	kitchen	sun_abdenxonkemggwsq.tif	502149.310561	502149.569147	502150.259156	7.256912e-01	59	none	NaN	NaN
113	3	1	27	bathroom	sun_ahcvzmoyaycdoftf.tif	502165.576675	502165.835265	502166.650550	8.257865e-01	17	none	NaN	NaN
113	3	2	21	bathroom	sun_aggnnqpdorgxpvce.tif	502167.420166	502167.678756	502168.493985	6.923261e-01	11	39	502170.690892	1
113	3	3	19	bathroom	sun_aclfzgynxzxlbepz.tif	502171.465842	502171.724434	502172.539589	8.257865e-01	9	none	NaN	NaN
113	3	4	46	bathroom	sun_apmqjbnwghzuhhzh.tif	502173.309334	502173.567925	502174.383041	7.090086e-01	36	none	NaN	NaN
113	3	5	17	bathroom	sun_acegryoqftbzowsg.tif	502175.152829	502175.411417	502176.226712	8.424691e-01	7	none	NaN	NaN
113	3	6	34	bathroom	sun_alkosphxlxwjwgjd.tif	502176.996322	502177.254911	502178.070246	7.256912e-01	24	none	NaN	NaN
113	3	7	18	bathroom	sun_acgyywnybuveqsro.tif	502178.839812	502179.098404	502179.913696	7.090086e-01	8	none	NaN	NaN
113	3	8	38	bathroom	sun_anhioqovhscjqqwb.tif	502180.683304	502180.941898	502181.757206	6.756435e-01	28	none	NaN	NaN
113	3	9	50	bathroom	sun_aspsyogrekjtfozg.tif	502182.526799	502182.785391	502183.600681	8.424691e-01	40	none	NaN	NaN
113	3	10	29	bathroom	sun_ahqjwnzgolcaoidx.tif	502184.370295	502184.628880	502185.444162	7.090086e-01	19	37	502186.586688	1
113	3	11	53	bathroom	sun_ausgutylgojavyoq.tif	502187.364928	502187.623520	502188.438939	6.589610e-01	43	none	NaN	NaN
113	3	12	59	bathroom	sun_axyrejkiiaqiurjk.tif	502189.208419	502189.467007	502190.282138	7.840801e-01	49	none	NaN	NaN
113	3	13	24	bathroom	sun_agrwbmhcpmfuwmsg.tif	502191.043572	502191.302161	502192.117499	8.007627e-01	14	none	NaN	NaN
113	3	14	58	bathroom	sun_axxbkopsgyouuebh.tif	502192.887061	502193.145651	502193.960873	7.507150e-01	48	none	NaN	NaN
113	3	15	31	bathroom	sun_akiytfaagpdsphgz.tif	502194.730558	502194.989146	502195.804474	6.839848e-01	21	none	NaN	NaN
113	3	16	13	bathroom	sun_aavhrsfjbserjtht.tif	502196.574051	502196.832644	502197.647880	7.590563e-01	3	none	NaN	NaN
113	3	17	54	bathroom	sun_auzqhkafidnkrwmo.tif	502198.417543	502198.676132	502199.491297	8.341278e-01	44	37	502200.762637	1
113	3	18	37	bathroom	sun_amzlamotzwfkwjco.tif	502201.537302	502201.795894	502202.611014	7.340325e-01	27	none	NaN	NaN
113	3	19	49	bathroom	sun_asfwthctfqerjvxr.tif	502203.380794	502203.639382	502204.454596	7.173499e-01	39	none	NaN	NaN
113	3	20	45	bathroom	sun_apkxzenqapsujocq.tif	502205.224288	502205.482876	502206.298005	6.756435e-01	35	none	NaN	NaN
113	3	21	39	bathroom	sun_anryaplzeujmzfkd.tif	502207.067778	502207.326368	502208.141515	6.506197e-01	29	none	NaN	NaN
113	3	22	51	bathroom	sun_atstyziqcmkahyxk.tif	502208.911276	502209.169864	502209.985068	7.673976e-01	41	none	NaN	NaN
113	3	23	30	bathroom	sun_ajlawzvmubibwbpy.tif	502210.754766	502211.013357	502211.828632	6.923261e-01	20	none	NaN	NaN
113	3	24	33	bathroom	sun_aljolscmmzydegqp.tif	502212.598259	502212.856851	502213.672148	7.840801e-01	23	none	NaN	NaN
113	3	25	20	bathroom	sun_afcoljnjfoxjtgja.tif	502214.441753	502214.700339	502215.515507	6.756435e-01	10	none	NaN	NaN
113	3	26	60	bathroom	sun_azqyogdvyhahyram.tif	502216.285272	502216.543835	502217.359035	8.091040e-01	50	none	NaN	NaN
113	3	27	22	bathroom	sun_agguqiubmwhqqunb.tif	502218.128740	502218.387329	502219.202513	7.673976e-01	12	39	502222.106848	1
113	3	28	55	bathroom	sun_avhrdrntsqrjzccq.tif	502222.883452	502223.142039	502223.957355	7.173499e-01	45	none	NaN	NaN
113	3	29	52	bathroom	sun_aunuadmjocsddsrl.tif	502224.726942	502224.985532	502225.800661	7.006674e-01	42	none	NaN	NaN
113	3	30	14	bathroom	sun_abapwbhyhkfixyex.tif	502226.562094	502226.820688	502227.636019	7.924214e-01	4	none	NaN	NaN
113	3	31	35	bathroom	sun_alotolagknyrgtsk.tif	502228.405589	502228.664176	502229.479316	7.757389e-01	25	39	502232.130643	1
113	3	32	11	bathroom	labelme_sfxiulhjbhlyiyt.tif	502232.901706	502233.160296	502233.975467	7.340325e-01	1	none	NaN	NaN
113	3	33	48	bathroom	sun_aqrpegblszgcoujh.tif	502234.745205	502235.003790	502235.819216	8.257865e-01	38	none	NaN	NaN
113	3	34	28	bathroom	sun_ahijqszoswveeyji.tif	502236.588696	502236.847282	502237.662458	7.507150e-01	18	37	502239.282797	0
113	3	35	57	bathroom	sun_axldvoqbuvuggfmq.tif	502240.058797	502240.317390	502241.132590	7.924214e-01	47	none	NaN	NaN
113	3	36	26	bathroom	sun_ahaulkltgpkeeemi.tif	502241.902291	502242.160880	502242.976179	7.256912e-01	16	none	NaN	NaN
113	3	37	23	bathroom	sun_aghyqhbptboemmoq.tif	502243.745786	502244.004373	502244.819540	8.174452e-01	13	none	NaN	NaN
113	3	38	47	bathroom	sun_apynckhmoftszqoq.tif	502245.589280	502245.847870	502246.663146	7.423737e-01	37	none	NaN	NaN
113	3	39	42	bathroom	sun_apeeialkgkuxddgh.tif	502247.432770	502247.691361	502248.506485	7.673976e-01	32	39	502250.834828	1
113	3	40	25	bathroom	sun_agyqfjcfkdcydepw.tif	502251.611916	502251.870501	502252.685763	6.839848e-01	15	none	NaN	NaN
113	3	41	32	bathroom	sun_aleqenyvunhactkl.tif	502253.455405	502253.713993	502254.529143	7.507150e-01	22	39	502256.122713	1
113	3	42	12	bathroom	sun_aapitsgbtktqubfy.tif	502256.900483	502257.159073	502257.974331	8.007627e-01	2	none	NaN	NaN
113	3	43	36	bathroom	sun_ambriybtogmepttm.tif	502258.743981	502259.002572	502259.817853	7.006674e-01	26	none	NaN	NaN
113	3	44	44	bathroom	sun_apkruvsevgegsdwp.tif	502260.587471	502260.846063	502261.661354	8.508104e-01	34	none	NaN	NaN
113	3	45	56	bathroom	sun_awnqiikzaispgmwo.tif	502262.430967	502262.689558	502263.504798	6.756435e-01	46	none	NaN	NaN
113	3	46	15	bathroom	sun_abjtwfukuwddzted.tif	502264.274457	502264.533048	502265.348191	8.424691e-01	5	none	NaN	NaN
113	3	47	16	bathroom	sun_acduarbnmmoglmiv.tif	502266.117949	502266.376540	502267.191738	6.923261e-01	6	none	NaN	NaN
113	3	48	43	bathroom	sun_apjevzvycyhuqghb.tif	502267.961446	502268.220034	502269.035328	7.757389e-01	33	none	NaN	NaN
113	3	49	40	bathroom	sun_aofnryafpsjimzsb.tif	502269.804938	502270.063530	502270.878646	6.673022e-01	30	none	NaN	NaN
113	3	50	41	bathroom	sun_aoybiabnpadelefl.tif	502271.648428	502271.907024	502272.722176	6.673022e-01	31	none	NaN	NaN
113	3	51	27	bathroom	sun_ahcvzmoyaycdoftf.tif	502273.491922	502273.750516	502274.565685	8.341278e-01	17	37	502275.978751	1
113	3	52	36	bathroom	sun_ambriybtogmepttm.tif	502276.753492	502277.012074	502277.827213	8.341278e-01	26	none	NaN	NaN
113	3	53	37	bathroom	sun_amzlamotzwfkwjco.tif	502278.596981	502278.855571	502279.670874	8.091040e-01	27	none	NaN	NaN
113	3	54	14	bathroom	sun_abapwbhyhkfixyex.tif	502280.440474	502280.699060	502281.514261	8.007627e-01	4	none	NaN	NaN
113	3	55	40	bathroom	sun_aofnryafpsjimzsb.tif	502282.283966	502282.542556	502283.357718	7.173499e-01	30	none	NaN	NaN
113	3	56	41	bathroom	sun_aoybiabnpadelefl.tif	502284.127461	502284.386051	502285.201474	6.589610e-01	31	none	NaN	NaN
113	3	57	39	bathroom	sun_anryaplzeujmzfkd.tif	502285.970950	502286.229543	502287.044716	6.839848e-01	29	none	NaN	NaN
113	3	58	43	bathroom	sun_apjevzvycyhuqghb.tif	502287.814443	502288.073034	502288.888305	6.923261e-01	33	none	NaN	NaN
113	3	59	60	bathroom	sun_azqyogdvyhahyram.tif	502289.657941	502289.916529	502290.731870	7.006674e-01	50	39	502292.042487	1
113	3	60	38	bathroom	sun_anhioqovhscjqqwb.tif	502292.819401	502293.077996	502293.893320	7.256912e-01	28	none	NaN	NaN
113	3	61	12	bathroom	sun_aapitsgbtktqubfy.tif	502294.662897	502294.921491	502295.736774	7.423737e-01	2	none	NaN	NaN
113	3	62	11	bathroom	labelme_sfxiulhjbhlyiyt.tif	502296.506387	502296.764983	502297.580249	7.757389e-01	1	none	NaN	NaN
113	3	63	30	bathroom	sun_ajlawzvmubibwbpy.tif	502298.349887	502298.608478	502299.423736	8.174452e-01	20	none	NaN	NaN
113	3	64	28	bathroom	sun_ahijqszoswveeyji.tif	502300.193375	502300.451966	502301.267179	6.506197e-01	18	none	NaN	NaN
113	3	65	48	bathroom	sun_aqrpegblszgcoujh.tif	502302.036867	502302.295463	502303.110586	7.507150e-01	38	none	NaN	NaN
113	3	66	25	bathroom	sun_agyqfjcfkdcydepw.tif	502303.880366	502304.138951	502304.954276	7.423737e-01	15	none	NaN	NaN
113	3	67	23	bathroom	sun_aghyqhbptboemmoq.tif	502305.723858	502305.982448	502306.797580	6.923261e-01	13	none	NaN	NaN
113	3	68	16	bathroom	sun_acduarbnmmoglmiv.tif	502307.567353	502307.825942	502308.641166	7.340325e-01	6	none	NaN	NaN
113	3	69	58	bathroom	sun_axxbkopsgyouuebh.tif	502309.410842	502309.669432	502310.484661	8.257865e-01	48	none	NaN	NaN
113	3	70	21	bathroom	sun_aggnnqpdorgxpvce.tif	502311.254340	502311.512924	502312.328078	8.174452e-01	11	none	NaN	NaN
113	3	71	26	bathroom	sun_ahaulkltgpkeeemi.tif	502313.097826	502313.356419	502314.171542	8.091040e-01	16	none	NaN	NaN
113	3	72	34	bathroom	sun_alkosphxlxwjwgjd.tif	502314.941323	502315.199911	502316.015089	6.506197e-01	24	none	NaN	NaN
113	3	73	52	bathroom	sun_aunuadmjocsddsrl.tif	502316.784818	502317.043402	502317.858522	6.673022e-01	42	none	NaN	NaN
113	3	74	15	bathroom	sun_abjtwfukuwddzted.tif	502318.628312	502318.886891	502319.702031	7.590563e-01	5	none	NaN	NaN
113	3	75	13	bathroom	sun_aavhrsfjbserjtht.tif	502320.471798	502320.730387	502321.545635	7.673976e-01	3	none	NaN	NaN
113	3	76	46	bathroom	sun_apmqjbnwghzuhhzh.tif	502322.315291	502322.573878	502323.389000	8.424691e-01	36	none	NaN	NaN
113	3	77	59	bathroom	sun_axyrejkiiaqiurjk.tif	502324.158788	502324.417376	502325.232548	7.924214e-01	49	none	NaN	NaN
113	3	78	42	bathroom	sun_apeeialkgkuxddgh.tif	502326.002281	502326.260870	502327.076164	7.840801e-01	32	none	NaN	NaN
113	3	79	24	bathroom	sun_agrwbmhcpmfuwmsg.tif	502327.845772	502328.104368	502328.919655	8.007627e-01	14	none	NaN	NaN
113	3	80	35	bathroom	sun_alotolagknyrgtsk.tif	502329.689265	502329.947855	502330.763015	7.173499e-01	25	37	502332.890672	1
113	3	81	57	bathroom	sun_axldvoqbuvuggfmq.tif	502333.668208	502333.926802	502334.741956	8.257865e-01	47	none	NaN	NaN
113	3	82	32	bathroom	sun_aleqenyvunhactkl.tif	502335.511703	502335.770287	502336.585486	7.423737e-01	22	none	NaN	NaN
113	3	83	55	bathroom	sun_avhrdrntsqrjzccq.tif	502337.355196	502337.613783	502338.428916	7.924214e-01	45	37	502339.506694	1
113	3	84	22	bathroom	sun_agguqiubmwhqqunb.tif	502340.283091	502340.541681	502341.356929	6.589610e-01	12	none	NaN	NaN
113	3	85	45	bathroom	sun_apkxzenqapsujocq.tif	502342.126588	502342.385181	502343.200511	7.340325e-01	35	none	NaN	NaN
113	3	86	20	bathroom	sun_afcoljnjfoxjtgja.tif	502343.970079	502344.228673	502345.044005	7.840801e-01	10	37	502346.354861	1
113	3	87	19	bathroom	sun_aclfzgynxzxlbepz.tif	502347.131551	502347.390133	502348.205280	7.590563e-01	9	none	NaN	NaN
113	3	88	31	bathroom	sun_akiytfaagpdsphgz.tif	502348.975041	502349.233627	502350.048812	7.590563e-01	21	none	NaN	NaN
113	3	89	47	bathroom	sun_apynckhmoftszqoq.tif	502350.818535	502351.077124	502351.892415	8.508104e-01	37	none	NaN	NaN
113	3	90	17	bathroom	sun_acegryoqftbzowsg.tif	502352.662025	502352.920615	502353.735856	6.839848e-01	7	none	NaN	NaN
113	3	91	33	bathroom	sun_aljolscmmzydegqp.tif	502354.505522	502354.764110	502355.579362	7.256912e-01	23	none	NaN	NaN
113	3	92	51	bathroom	sun_atstyziqcmkahyxk.tif	502356.349015	502356.607601	502357.422813	6.673022e-01	41	37	502358.434703	1
113	3	93	54	bathroom	sun_auzqhkafidnkrwmo.tif	502359.210180	502359.468772	502360.283886	8.174452e-01	44	none	NaN	NaN
113	3	94	18	bathroom	sun_acgyywnybuveqsro.tif	502361.053674	502361.312264	502362.127393	7.006674e-01	8	none	NaN	NaN
113	3	95	50	bathroom	sun_aspsyogrekjtfozg.tif	502362.897167	502363.155758	502363.971054	7.090086e-01	40	none	NaN	NaN
113	3	96	53	bathroom	sun_ausgutylgojavyoq.tif	502364.740659	502364.999252	502365.814419	7.757389e-01	43	none	NaN	NaN
113	3	97	56	bathroom	sun_awnqiikzaispgmwo.tif	502366.584151	502366.842744	502367.657935	8.091040e-01	46	37	502368.514867	1
113	3	98	49	bathroom	sun_asfwthctfqerjvxr.tif	502369.286828	502369.545413	502370.360645	7.590563e-01	39	none	NaN	NaN
113	3	99	44	bathroom	sun_apkruvsevgegsdwp.tif	502371.130329	502371.388914	502372.204173	6.589610e-01	34	none	NaN	NaN
113	3	100	29	bathroom	sun_ahqjwnzgolcaoidx.tif	502372.973816	502373.232405	502374.047702	8.341278e-01	19	none	NaN	NaN
113	4	1	68	kitchen	sun_aaxxjlsuzvqlgylf.tif	502389.365059	502389.623648	502390.321992	7.256912e-01	58	none	NaN	NaN
113	4	2	77	kitchen	sun_acxkpeoqbwcxfvip.tif	502391.091766	502391.350356	502392.048766	7.006674e-01	67	none	NaN	NaN
113	4	3	79	kitchen	sun_admlmbcdswaszruo.tif	502392.818478	502393.077064	502393.775516	8.174452e-01	69	none	NaN	NaN
113	4	4	86	kitchen	sun_aggjlwcdjsjcaemh.tif	502394.545190	502394.803779	502395.502273	7.090086e-01	76	none	NaN	NaN
113	4	5	94	kitchen	sun_ahywdevtimnqcsln.tif	502396.271921	502396.530486	502397.228981	7.006674e-01	84	none	NaN	NaN
113	4	6	95	kitchen	sun_aixorpehvfykdynp.tif	502397.998611	502398.257200	502398.955621	6.756435e-01	85	none	NaN	NaN
113	4	7	75	kitchen	sun_acgtpgfybqjmzeyw.tif	502399.725319	502399.983912	502400.682262	7.507150e-01	65	none	NaN	NaN
113	4	8	88	kitchen	sun_agubuxuukhzyzpdp.tif	502401.452032	502401.710621	502402.409007	6.589610e-01	78	none	NaN	NaN
113	4	9	85	kitchen	sun_afuyedyxivkhecmu.tif	502403.178741	502403.437330	502404.135846	7.840801e-01	75	37	502405.946807	1
113	4	10	104	kitchen	sun_auticobqsbwgoppi.tif	502406.723920	502406.982520	502407.681019	7.590563e-01	94	39	502409.578650	1
113	4	11	72	kitchen	sun_abpwyqmlzafvklqo.tif	502410.352520	502410.611109	502411.309547	7.924214e-01	62	none	NaN	NaN
113	4	12	66	kitchen	sun_aapllqyqlykszopd.tif	502412.079230	502412.337815	502413.036206	7.256912e-01	56	none	NaN	NaN
113	4	13	69	kitchen	sun_abdenxonkemggwsq.tif	502413.805938	502414.064529	502414.762872	8.091040e-01	59	39	502416.010864	1
113	4	14	108	kitchen	sun_aymvwlarqodbwuoc.tif	502416.783891	502417.042478	502417.740924	6.756435e-01	98	none	NaN	NaN
113	4	15	105	kitchen	sun_avszsnwsbuqfgzbn.tif	502418.510596	502418.769188	502419.467577	7.507150e-01	95	none	NaN	NaN
113	4	16	78	kitchen	sun_adgqasybjyktddhj.tif	502420.237309	502420.495902	502421.194383	8.007627e-01	68	none	NaN	NaN
113	4	17	101	kitchen	sun_aqeaevwwwjoqhzvl.tif	502421.964017	502422.222608	502422.921156	8.508104e-01	91	39	502424.802810	1
113	4	18	99	kitchen	sun_akcjzhbbjlbogpdi.tif	502425.575931	502425.834525	502426.532994	6.839848e-01	89	none	NaN	NaN
113	4	19	90	kitchen	sun_ahdycvpopffkzzsu.tif	502427.302638	502427.561235	502428.259783	7.423737e-01	80	none	NaN	NaN
113	4	20	70	kitchen	sun_abdxkyyxwfskuaqb.tif	502429.029347	502429.287944	502429.986360	8.341278e-01	60	none	NaN	NaN
113	4	21	81	kitchen	sun_aehawpgmrlhlvcow.tif	502430.756065	502431.014654	502431.713097	8.007627e-01	71	37	502433.810890	0
113	4	22	106	kitchen	sun_awcpdzzznmweyyhv.tif	502434.584853	502434.843446	502435.541903	8.091040e-01	96	none	NaN	NaN
113	4	23	93	kitchen	sun_ahspylgoovwmwvgk.tif	502436.311568	502436.570157	502437.268544	6.506197e-01	83	none	NaN	NaN
113	4	24	97	kitchen	sun_ajkqhtgcbgpcwrwn.tif	502438.038278	502438.296865	502438.995327	7.173499e-01	87	none	NaN	NaN
113	4	25	91	kitchen	sun_ahljzhgcdpomplvg.tif	502439.756652	502440.015241	502440.713737	7.256912e-01	81	none	NaN	NaN
113	4	26	96	kitchen	sun_ajcbwwvdlsvjyzje.tif	502441.483358	502441.741950	502442.440447	8.091040e-01	86	none	NaN	NaN
113	4	27	62	kitchen	labelme_kxvouciolcpqplr.tif	502443.210067	502443.468661	502444.167109	7.757389e-01	52	none	NaN	NaN
113	4	28	109	kitchen	sun_aypmqwcualkenuoe.tif	502444.936781	502445.195373	502445.893806	7.757389e-01	99	37	502447.450773	1
113	4	29	76	kitchen	sun_acwjdupvyjsugpay.tif	502448.223373	502448.481958	502449.180511	8.091040e-01	66	none	NaN	NaN
113	4	30	87	kitchen	sun_agorklincwxrdtga.tif	502449.950079	502450.208669	502450.907220	8.424691e-01	77	none	NaN	NaN
113	4	31	102	kitchen	sun_auaiucuqpdausiva.tif	502451.676790	502451.935383	502452.633718	8.341278e-01	92	none	NaN	NaN
113	4	32	110	kitchen	sun_azmutvzbxypaceni.tif	502453.403504	502453.662092	502454.360638	7.673976e-01	100	39	502457.794603	1
113	4	33	98	kitchen	sun_akchetnepxlcxhsu.tif	502458.566951	502458.825533	502459.523910	6.673022e-01	88	none	NaN	NaN
113	4	34	100	kitchen	sun_amjjdeyrggfqgmom.tif	502460.293666	502460.552247	502461.250805	7.340325e-01	90	37	502462.994887	1
113	4	35	107	kitchen	sun_axyyrmzcupyhlivc.tif	502463.772106	502464.030695	502464.729087	7.673976e-01	97	none	NaN	NaN
113	4	36	65	kitchen	sun_aamedkxepzlwuxes.tif	502465.498820	502465.757407	502466.455837	8.174452e-01	55	none	NaN	NaN
113	4	37	64	kitchen	sun_aadbddgrdsjugojn.tif	502467.225529	502467.484120	502468.182656	7.340325e-01	54	37	502469.226617	1
113	4	38	89	kitchen	sun_agzzivivdpnawacl.tif	502470.003280	502470.261867	502470.960261	8.424691e-01	79	none	NaN	NaN
113	4	39	103	kitchen	sun_aunzlwrbjumxhwdj.tif	502471.729996	502471.988581	502472.687066	6.839848e-01	93	none	NaN	NaN
113	4	40	71	kitchen	sun_abftihopvusyfakt.tif	502473.456703	502473.715293	502474.413669	7.423737e-01	61	none	NaN	NaN
113	4	41	83	kitchen	sun_aeqdocilnnpuvuhx.tif	502475.183410	502475.442002	502476.140435	6.506197e-01	73	none	NaN	NaN
113	4	42	73	kitchen	sun_abrcnpqqhmjwekyf.tif	502476.910125	502477.168711	502477.867279	6.506197e-01	63	none	NaN	NaN
113	4	43	84	kitchen	sun_aexklacwqwezaorf.tif	502478.636839	502478.895426	502479.593931	7.173499e-01	74	none	NaN	NaN
113	4	44	92	kitchen	sun_ahpczsiumwwocjkv.tif	502480.363546	502480.622132	502481.320651	7.673976e-01	82	none	NaN	NaN
113	4	45	82	kitchen	sun_aenotlpyftoioydp.tif	502482.090260	502482.348848	502483.047306	8.257865e-01	72	39	502484.443477	1
113	4	46	80	kitchen	sun_aegoxogugdkwpmpj.tif	502485.218355	502485.476944	502486.175379	6.923261e-01	70	none	NaN	NaN
113	4	47	61	kitchen	labelme_brsyyvweiuaazfr.tif	502486.945068	502487.203656	502487.902064	7.090086e-01	51	none	NaN	NaN
113	4	48	63	kitchen	labelme_rykdqxenmhulbdn.tif	502488.671779	502488.930310	502489.628840	8.174452e-01	53	37	502491.770648	1
113	4	49	67	kitchen	sun_aarfiyshqohlwkmo.tif	502492.542276	502492.800871	502493.499205	7.006674e-01	57	none	NaN	NaN
113	4	50	74	kitchen	sun_acfmftudsenhrfhy.tif	502494.260648	502494.519238	502495.217683	7.423737e-01	64	none	NaN	NaN
113	4	51	91	kitchen	sun_ahljzhgcdpomplvg.tif	502495.987363	502496.245947	502496.944508	7.924214e-01	81	none	NaN	NaN
113	4	52	85	kitchen	sun_afuyedyxivkhecmu.tif	502497.714067	502497.972662	502498.671111	8.257865e-01	75	none	NaN	NaN
113	4	53	78	kitchen	sun_adgqasybjyktddhj.tif	502499.440780	502499.699374	502500.397790	6.756435e-01	68	none	NaN	NaN
113	4	54	92	kitchen	sun_ahpczsiumwwocjkv.tif	502501.167492	502501.426078	502502.124506	6.589610e-01	82	none	NaN	NaN
113	4	55	87	kitchen	sun_agorklincwxrdtga.tif	502502.894236	502503.152794	502503.851262	8.257865e-01	77	none	NaN	NaN
113	4	56	102	kitchen	sun_auaiucuqpdausiva.tif	502504.620910	502504.879499	502505.577914	7.256912e-01	92	none	NaN	NaN
113	4	57	66	kitchen	sun_aapllqyqlykszopd.tif	502506.347622	502506.606210	502507.304615	8.007627e-01	56	39	502510.090880	1
113	4	58	106	kitchen	sun_awcpdzzznmweyyhv.tif	502510.868767	502511.127360	502511.825896	7.090086e-01	96	none	NaN	NaN
113	4	59	64	kitchen	sun_aadbddgrdsjugojn.tif	502512.595478	502512.854068	502513.552705	7.090086e-01	54	none	NaN	NaN
113	4	60	80	kitchen	sun_aegoxogugdkwpmpj.tif	502514.322190	502514.580778	502515.279124	6.673022e-01	70	none	NaN	NaN
113	4	61	73	kitchen	sun_abrcnpqqhmjwekyf.tif	502516.048899	502516.307495	502517.005895	7.673976e-01	63	none	NaN	NaN
113	4	62	105	kitchen	sun_avszsnwsbuqfgzbn.tif	502517.775613	502518.034200	502518.732559	7.423737e-01	95	none	NaN	NaN
113	4	63	62	kitchen	labelme_kxvouciolcpqplr.tif	502519.502326	502519.760908	502520.459412	7.173499e-01	52	none	NaN	NaN
113	4	64	89	kitchen	sun_agzzivivdpnawacl.tif	502521.229035	502521.487628	502522.186162	6.673022e-01	79	none	NaN	NaN
113	4	65	103	kitchen	sun_aunzlwrbjumxhwdj.tif	502522.955741	502523.214333	502523.912860	8.257865e-01	93	37	502525.538915	1
113	4	66	108	kitchen	sun_aymvwlarqodbwuoc.tif	502526.317409	502526.575998	502527.274544	8.424691e-01	98	none	NaN	NaN
113	4	67	72	kitchen	sun_abpwyqmlzafvklqo.tif	502528.044118	502528.302709	502529.001247	7.590563e-01	62	none	NaN	NaN
113	4	68	70	kitchen	sun_abdxkyyxwfskuaqb.tif	502529.770826	502530.029420	502530.727927	6.923261e-01	60	none	NaN	NaN
113	4	69	68	kitchen	sun_aaxxjlsuzvqlgylf.tif	502531.497516	502531.756130	502532.454625	6.756435e-01	58	37	502534.122835	1
113	4	70	110	kitchen	sun_azmutvzbxypaceni.tif	502534.900915	502535.159500	502535.857891	7.507150e-01	100	none	NaN	NaN
113	4	71	107	kitchen	sun_axyyrmzcupyhlivc.tif	502536.627627	502536.886213	502537.584608	6.923261e-01	97	none	NaN	NaN
113	4	72	97	kitchen	sun_ajkqhtgcbgpcwrwn.tif	502538.354333	502538.612924	502539.311281	7.340325e-01	87	none	NaN	NaN
113	4	73	65	kitchen	sun_aamedkxepzlwuxes.tif	502540.081043	502540.339630	502541.038001	7.590563e-01	55	39	502542.402951	1
113	4	74	99	kitchen	sun_akcjzhbbjlbogpdi.tif	502543.175778	502543.434368	502544.132765	6.839848e-01	89	none	NaN	NaN
113	4	75	94	kitchen	sun_ahywdevtimnqcsln.tif	502544.902488	502545.161077	502545.859438	7.840801e-01	84	none	NaN	NaN
113	4	76	83	kitchen	sun_aeqdocilnnpuvuhx.tif	502546.620855	502546.879452	502547.577975	8.341278e-01	73	none	NaN	NaN
113	4	77	86	kitchen	sun_aggjlwcdjsjcaemh.tif	502548.347567	502548.606158	502549.304663	6.673022e-01	76	none	NaN	NaN
113	4	78	95	kitchen	sun_aixorpehvfykdynp.tif	502550.074278	502550.332866	502551.031260	7.590563e-01	85	none	NaN	NaN
113	4	79	74	kitchen	sun_acfmftudsenhrfhy.tif	502551.800993	502552.059577	502552.758102	7.590563e-01	64	none	NaN	NaN
113	4	80	77	kitchen	sun_acxkpeoqbwcxfvip.tif	502553.527702	502553.786293	502554.484759	7.757389e-01	67	none	NaN	NaN
113	4	81	79	kitchen	sun_admlmbcdswaszruo.tif	502555.254412	502555.512997	502556.211516	7.924214e-01	69	none	NaN	NaN
113	4	82	84	kitchen	sun_aexklacwqwezaorf.tif	502556.981122	502557.239706	502557.938264	8.508104e-01	74	none	NaN	NaN
113	4	83	88	kitchen	sun_agubuxuukhzyzpdp.tif	502558.707832	502558.966423	502559.664807	7.924214e-01	78	none	NaN	NaN
113	4	84	109	kitchen	sun_aypmqwcualkenuoe.tif	502560.434543	502560.693132	502561.391489	8.424691e-01	99	none	NaN	NaN
113	4	85	63	kitchen	labelme_rykdqxenmhulbdn.tif	502562.161257	502562.419846	502563.118360	6.589610e-01	53	none	NaN	NaN
113	4	86	101	kitchen	sun_aqeaevwwwjoqhzvl.tif	502563.887966	502564.146555	502564.845070	8.341278e-01	91	none	NaN	NaN
113	4	87	93	kitchen	sun_ahspylgoovwmwvgk.tif	502565.614671	502565.873266	502566.571608	7.840801e-01	83	none	NaN	NaN
113	4	88	81	kitchen	sun_aehawpgmrlhlvcow.tif	502567.341386	502567.599973	502568.298400	7.340325e-01	71	none	NaN	NaN
113	4	89	90	kitchen	sun_ahdycvpopffkzzsu.tif	502569.068098	502569.326688	502570.025219	8.257865e-01	80	none	NaN	NaN
113	4	90	98	kitchen	sun_akchetnepxlcxhsu.tif	502570.794807	502571.053401	502571.751933	7.757389e-01	88	none	NaN	NaN
113	4	91	69	kitchen	sun_abdenxonkemggwsq.tif	502572.521519	502572.780106	502573.478619	6.923261e-01	59	none	NaN	NaN
113	4	92	96	kitchen	sun_ajcbwwvdlsvjyzje.tif	502574.248231	502574.506820	502575.205347	6.839848e-01	86	none	NaN	NaN
113	4	93	75	kitchen	sun_acgtpgfybqjmzeyw.tif	502575.974941	502576.233531	502576.932058	8.174452e-01	65	none	NaN	NaN
113	4	94	76	kitchen	sun_acwjdupvyjsugpay.tif	502577.701650	502577.960242	502578.658764	7.173499e-01	66	none	NaN	NaN
113	4	95	104	kitchen	sun_auticobqsbwgoppi.tif	502579.428360	502579.686954	502580.385472	8.007627e-01	94	none	NaN	NaN
113	4	96	82	kitchen	sun_aenotlpyftoioydp.tif	502581.155071	502581.413656	502582.112007	7.840801e-01	72	none	NaN	NaN
113	4	97	61	kitchen	labelme_brsyyvweiuaazfr.tif	502582.873442	502583.132030	502583.830480	7.006674e-01	51	none	NaN	NaN
113	4	98	71	kitchen	sun_abftihopvusyfakt.tif	502584.600152	502584.858732	502585.557144	6.589610e-01	61	none	NaN	NaN
113	4	99	67	kitchen	sun_aarfiyshqohlwkmo.tif	502586.326865	502586.585448	502587.283963	6.923261e-01	57	none	NaN	NaN
113	4	100	100	kitchen	sun_amjjdeyrggfqgmom.tif	502588.053576	502588.312164	502589.010537	7.507150e-01	90	none	NaN	NaN
113	5	1	47	bathroom	sun_apynckhmoftszqoq.tif	502612.277574	502612.536165	502613.243019	7.590563e-01	37	none	NaN	NaN
113	5	2	55	bathroom	sun_avhrdrntsqrjzccq.tif	502614.012628	502614.271218	502614.977957	6.506197e-01	45	39	502616.218873	1
113	5	3	45	bathroom	sun_apkxzenqapsujocq.tif	502616.990570	502617.249162	502617.956015	7.423737e-01	35	none	NaN	NaN
113	5	4	41	bathroom	sun_aoybiabnpadelefl.tif	502618.725631	502618.984221	502619.691098	7.090086e-01	31	none	NaN	NaN
113	5	5	21	bathroom	sun_aggnnqpdorgxpvce.tif	502620.460680	502620.719272	502621.426153	7.173499e-01	11	none	NaN	NaN
113	5	6	36	bathroom	sun_ambriybtogmepttm.tif	502622.195733	502622.454322	502623.161273	8.508104e-01	26	none	NaN	NaN
113	5	7	24	bathroom	sun_agrwbmhcpmfuwmsg.tif	502623.930785	502624.189324	502624.896089	6.756435e-01	14	none	NaN	NaN
113	5	8	37	bathroom	sun_amzlamotzwfkwjco.tif	502625.665838	502625.924428	502626.631120	7.006674e-01	27	none	NaN	NaN
113	5	9	20	bathroom	sun_afcoljnjfoxjtgja.tif	502627.400888	502627.659478	502628.366304	7.256912e-01	10	none	NaN	NaN
113	5	10	40	bathroom	sun_aofnryafpsjimzsb.tif	502629.135942	502629.394532	502630.101274	7.507150e-01	30	none	NaN	NaN
113	5	11	42	bathroom	sun_apeeialkgkuxddgh.tif	502630.870997	502631.129586	502631.836481	8.091040e-01	32	none	NaN	NaN
113	5	12	13	bathroom	sun_aavhrsfjbserjtht.tif	502632.606049	502632.864635	502633.571380	8.174452e-01	3	none	NaN	NaN
113	5	13	11	bathroom	labelme_sfxiulhjbhlyiyt.tif	502634.341100	502634.599687	502635.306368	7.256912e-01	1	none	NaN	NaN
113	5	14	34	bathroom	sun_alkosphxlxwjwgjd.tif	502636.067808	502636.326400	502637.033266	6.589610e-01	24	37	502638.602683	1
113	5	15	51	bathroom	sun_atstyziqcmkahyxk.tif	502639.379424	502639.638014	502640.344844	7.256912e-01	41	39	502642.050670	1
113	5	16	32	bathroom	sun_aleqenyvunhactkl.tif	502642.824504	502643.083095	502643.789893	7.840801e-01	22	none	NaN	NaN
113	5	17	26	bathroom	sun_ahaulkltgpkeeemi.tif	502644.559556	502644.818149	502645.524943	7.924214e-01	16	none	NaN	NaN
113	5	18	33	bathroom	sun_aljolscmmzydegqp.tif	502646.294610	502646.553196	502647.260062	7.006674e-01	23	37	502648.674868	1
113	5	19	28	bathroom	sun_ahijqszoswveeyji.tif	502649.447732	502649.706322	502650.413074	7.006674e-01	18	none	NaN	NaN
113	5	20	19	bathroom	sun_aclfzgynxzxlbepz.tif	502651.182787	502651.441370	502652.148192	7.590563e-01	9	none	NaN	NaN
113	5	21	35	bathroom	sun_alotolagknyrgtsk.tif	502652.917833	502653.176427	502653.883264	7.173499e-01	25	none	NaN	NaN
113	5	22	58	bathroom	sun_axxbkopsgyouuebh.tif	502654.652892	502654.911480	502655.618347	8.508104e-01	48	none	NaN	NaN
113	5	23	27	bathroom	sun_ahcvzmoyaycdoftf.tif	502656.387942	502656.646531	502657.353265	7.173499e-01	17	none	NaN	NaN
113	5	24	23	bathroom	sun_aghyqhbptboemmoq.tif	502658.122994	502658.381577	502659.088408	8.091040e-01	13	none	NaN	NaN
113	5	25	56	bathroom	sun_awnqiikzaispgmwo.tif	502659.858048	502660.116637	502660.823397	8.174452e-01	46	none	NaN	NaN
113	5	26	15	bathroom	sun_abjtwfukuwddzted.tif	502661.593102	502661.851685	502662.558490	7.423737e-01	5	none	NaN	NaN
113	5	27	48	bathroom	sun_aqrpegblszgcoujh.tif	502663.328153	502663.586739	502664.293550	8.424691e-01	38	none	NaN	NaN
113	5	28	18	bathroom	sun_acgyywnybuveqsro.tif	502665.063202	502665.321798	502666.028568	8.174452e-01	8	none	NaN	NaN
113	5	29	60	bathroom	sun_azqyogdvyhahyram.tif	502666.798257	502667.056850	502667.763691	8.007627e-01	50	none	NaN	NaN
113	5	30	46	bathroom	sun_apmqjbnwghzuhhzh.tif	502668.533308	502668.791900	502669.498734	6.756435e-01	36	none	NaN	NaN
113	5	31	30	bathroom	sun_ajlawzvmubibwbpy.tif	502670.268356	502670.526946	502671.233718	6.589610e-01	20	none	NaN	NaN
113	5	32	31	bathroom	sun_akiytfaagpdsphgz.tif	502672.003409	502672.262004	502672.968794	8.424691e-01	21	none	NaN	NaN
113	5	33	16	bathroom	sun_acduarbnmmoglmiv.tif	502673.738468	502673.997053	502674.703860	6.673022e-01	6	none	NaN	NaN
113	5	34	29	bathroom	sun_ahqjwnzgolcaoidx.tif	502675.473517	502675.732108	502676.438869	7.090086e-01	19	39	502678.810782	1
113	5	35	49	bathroom	sun_asfwthctfqerjvxr.tif	502679.585923	502679.844513	502680.551237	7.673976e-01	39	none	NaN	NaN
113	5	36	43	bathroom	sun_apjevzvycyhuqghb.tif	502681.320976	502681.579566	502682.286291	8.007627e-01	33	none	NaN	NaN
113	5	37	22	bathroom	sun_agguqiubmwhqqunb.tif	502683.047689	502683.306274	502684.013092	7.006674e-01	12	none	NaN	NaN
113	5	38	17	bathroom	sun_acegryoqftbzowsg.tif	502684.782741	502685.041329	502685.748047	6.673022e-01	7	none	NaN	NaN
113	5	39	44	bathroom	sun_apkruvsevgegsdwp.tif	502686.517792	502686.776385	502687.483165	7.757389e-01	34	39	502689.786823	1
113	5	40	52	bathroom	sun_aunuadmjocsddsrl.tif	502690.563465	502690.822056	502691.528879	8.007627e-01	42	none	NaN	NaN
113	5	41	59	bathroom	sun_axyrejkiiaqiurjk.tif	502692.298523	502692.557109	502693.263833	8.007627e-01	49	none	NaN	NaN
113	5	42	53	bathroom	sun_ausgutylgojavyoq.tif	502694.033570	502694.292159	502694.998932	7.090086e-01	43	none	NaN	NaN
113	5	43	12	bathroom	sun_aapitsgbtktqubfy.tif	502695.768624	502696.027219	502696.734011	6.589610e-01	2	none	NaN	NaN
113	5	44	25	bathroom	sun_agyqfjcfkdcydepw.tif	502697.503677	502697.762267	502698.468982	7.673976e-01	15	none	NaN	NaN
113	5	45	14	bathroom	sun_abapwbhyhkfixyex.tif	502699.238731	502699.497320	502700.204194	7.590563e-01	4	none	NaN	NaN
113	5	46	54	bathroom	sun_auzqhkafidnkrwmo.tif	502700.973781	502701.232371	502701.939178	8.091040e-01	44	none	NaN	NaN
113	5	47	39	bathroom	sun_anryaplzeujmzfkd.tif	502702.708834	502702.967422	502703.674295	7.840801e-01	29	none	NaN	NaN
113	5	48	38	bathroom	sun_anhioqovhscjqqwb.tif	502704.443889	502704.702474	502705.409263	6.756435e-01	28	none	NaN	NaN
113	5	49	57	bathroom	sun_axldvoqbuvuggfmq.tif	502706.178939	502706.437550	502707.144228	7.757389e-01	47	none	NaN	NaN
113	5	50	50	bathroom	sun_aspsyogrekjtfozg.tif	502707.913990	502708.172582	502708.879462	8.091040e-01	40	none	NaN	NaN
113	5	51	50	bathroom	sun_aspsyogrekjtfozg.tif	502709.649043	502709.907637	502710.614522	7.673976e-01	40	none	NaN	NaN
113	5	52	58	bathroom	sun_axxbkopsgyouuebh.tif	502711.384099	502711.642690	502712.349390	8.257865e-01	48	none	NaN	NaN
113	5	53	13	bathroom	sun_aavhrsfjbserjtht.tif	502713.119147	502713.377732	502714.084508	8.257865e-01	3	none	NaN	NaN
113	5	54	28	bathroom	sun_ahijqszoswveeyji.tif	502714.854202	502715.112785	502715.819474	7.423737e-01	18	none	NaN	NaN
113	5	55	31	bathroom	sun_akiytfaagpdsphgz.tif	502716.580913	502716.839504	502717.546316	7.590563e-01	21	none	NaN	NaN
113	5	56	14	bathroom	sun_abapwbhyhkfixyex.tif	502718.315966	502718.574551	502719.281306	8.341278e-01	4	none	NaN	NaN
113	5	57	26	bathroom	sun_ahaulkltgpkeeemi.tif	502720.051020	502720.309603	502721.016501	7.340325e-01	16	none	NaN	NaN
113	5	58	45	bathroom	sun_apkxzenqapsujocq.tif	502721.786067	502722.044657	502722.751564	8.257865e-01	35	none	NaN	NaN
113	5	59	52	bathroom	sun_aunuadmjocsddsrl.tif	502723.521121	502723.779712	502724.486397	7.840801e-01	42	none	NaN	NaN
113	5	60	15	bathroom	sun_abjtwfukuwddzted.tif	502725.256173	502725.514769	502726.221577	8.424691e-01	5	none	NaN	NaN
113	5	61	42	bathroom	sun_apeeialkgkuxddgh.tif	502726.991224	502727.249818	502727.956598	8.341278e-01	32	none	NaN	NaN
113	5	62	32	bathroom	sun_aleqenyvunhactkl.tif	502728.726275	502728.984866	502729.691741	8.341278e-01	22	none	NaN	NaN
113	5	63	34	bathroom	sun_alkosphxlxwjwgjd.tif	502730.461329	502730.719920	502731.426747	7.757389e-01	24	none	NaN	NaN
113	5	64	16	bathroom	sun_acduarbnmmoglmiv.tif	502732.196385	502732.454973	502733.161674	8.257865e-01	6	none	NaN	NaN
113	5	65	44	bathroom	sun_apkruvsevgegsdwp.tif	502733.931437	502734.190024	502734.896761	7.590563e-01	34	none	NaN	NaN
113	5	66	36	bathroom	sun_ambriybtogmepttm.tif	502735.666487	502735.925079	502736.631880	7.507150e-01	26	none	NaN	NaN
113	5	67	27	bathroom	sun_ahcvzmoyaycdoftf.tif	502737.401541	502737.660130	502738.366833	6.839848e-01	17	none	NaN	NaN
113	5	68	33	bathroom	sun_aljolscmmzydegqp.tif	502739.136589	502739.395183	502740.101859	8.174452e-01	23	39	502743.530997	1
113	5	69	49	bathroom	sun_asfwthctfqerjvxr.tif	502744.308386	502744.566973	502745.273828	6.923261e-01	39	none	NaN	NaN
113	5	70	46	bathroom	sun_apmqjbnwghzuhhzh.tif	502746.043435	502746.302026	502747.008832	6.589610e-01	36	39	502748.402856	1
113	5	71	60	bathroom	sun_azqyogdvyhahyram.tif	502749.179880	502749.438465	502750.145237	6.923261e-01	50	37	502750.914501	1
113	5	72	56	bathroom	sun_awnqiikzaispgmwo.tif	502751.690697	502751.949284	502752.656060	8.341278e-01	46	none	NaN	NaN
113	5	73	53	bathroom	sun_ausgutylgojavyoq.tif	502753.425749	502753.684300	502754.391076	7.924214e-01	43	none	NaN	NaN
113	5	74	12	bathroom	sun_aapitsgbtktqubfy.tif	502755.160803	502755.419392	502756.126279	7.924214e-01	2	none	NaN	NaN
113	5	75	38	bathroom	sun_anhioqovhscjqqwb.tif	502756.895855	502757.154444	502757.861322	6.923261e-01	28	none	NaN	NaN
113	5	76	47	bathroom	sun_apynckhmoftszqoq.tif	502758.630906	502758.889498	502759.596253	6.923261e-01	37	none	NaN	NaN
113	5	77	55	bathroom	sun_avhrdrntsqrjzccq.tif	502760.365958	502760.624554	502761.331271	6.839848e-01	45	none	NaN	NaN
113	5	78	29	bathroom	sun_ahqjwnzgolcaoidx.tif	502762.101011	502762.359601	502763.066300	8.424691e-01	19	none	NaN	NaN
113	5	79	20	bathroom	sun_afcoljnjfoxjtgja.tif	502763.836062	502764.094652	502764.801389	7.840801e-01	10	37	502765.834681	1
113	5	80	59	bathroom	sun_axyrejkiiaqiurjk.tif	502766.605475	502766.864060	502767.570755	6.506197e-01	49	none	NaN	NaN
113	5	81	39	bathroom	sun_anryaplzeujmzfkd.tif	502768.340523	502768.599117	502769.305852	7.256912e-01	29	none	NaN	NaN
113	5	82	18	bathroom	sun_acgyywnybuveqsro.tif	502770.075579	502770.334168	502771.040874	7.340325e-01	8	none	NaN	NaN
113	5	83	21	bathroom	sun_aggnnqpdorgxpvce.tif	502771.810633	502772.069218	502772.776028	7.090086e-01	11	none	NaN	NaN
113	5	84	37	bathroom	sun_amzlamotzwfkwjco.tif	502773.545682	502773.804269	502774.511149	7.173499e-01	27	39	502776.426708	1
113	5	85	11	bathroom	labelme_sfxiulhjbhlyiyt.tif	502777.199307	502777.457892	502778.164754	7.340325e-01	1	37	502780.210775	1
113	5	86	35	bathroom	sun_alotolagknyrgtsk.tif	502780.986386	502781.244983	502781.951739	7.507150e-01	25	37	502782.970770	1
113	5	87	30	bathroom	sun_ajlawzvmubibwbpy.tif	502783.747458	502784.006042	502784.712908	7.673976e-01	20	none	NaN	NaN
113	5	88	57	bathroom	sun_axldvoqbuvuggfmq.tif	502785.482510	502785.741099	502786.447844	6.839848e-01	47	none	NaN	NaN
113	5	89	22	bathroom	sun_agguqiubmwhqqunb.tif	502787.217561	502787.476152	502788.182993	6.756435e-01	12	none	NaN	NaN
113	5	90	19	bathroom	sun_aclfzgynxzxlbepz.tif	502788.952613	502789.211206	502789.918019	7.340325e-01	9	none	NaN	NaN
113	5	91	25	bathroom	sun_agyqfjcfkdcydepw.tif	502790.687664	502790.946260	502791.653096	6.673022e-01	15	37	502793.562855	1
113	5	92	43	bathroom	sun_apjevzvycyhuqghb.tif	502794.341288	502794.599876	502795.306763	6.673022e-01	33	none	NaN	NaN
113	5	93	54	bathroom	sun_auzqhkafidnkrwmo.tif	502796.076340	502796.334929	502797.041759	7.757389e-01	44	none	NaN	NaN
113	5	94	51	bathroom	sun_atstyziqcmkahyxk.tif	502797.811393	502798.069978	502798.776663	7.423737e-01	41	none	NaN	NaN
113	5	95	24	bathroom	sun_agrwbmhcpmfuwmsg.tif	502799.546445	502799.805036	502800.511821	6.839848e-01	14	none	NaN	NaN
113	5	96	23	bathroom	sun_aghyqhbptboemmoq.tif	502801.281498	502801.540087	502802.246883	6.923261e-01	13	39	502803.962804	1
113	5	97	40	bathroom	sun_aofnryafpsjimzsb.tif	502804.734916	502804.993504	502805.700385	6.506197e-01	30	none	NaN	NaN
113	5	98	41	bathroom	sun_aoybiabnpadelefl.tif	502806.469967	502806.728561	502807.435323	7.507150e-01	31	none	NaN	NaN
113	5	99	48	bathroom	sun_aqrpegblszgcoujh.tif	502808.205021	502808.463612	502809.170347	7.924214e-01	38	none	NaN	NaN
113	5	100	17	bathroom	sun_acegryoqftbzowsg.tif	502809.940076	502810.198662	502810.905380	8.257865e-01	7	none	NaN	NaN
113	6	1	64	kitchen	sun_aadbddgrdsjugojn.tif	502822.444131	502822.702718	502823.442970	8.424691e-01	54	none	NaN	NaN
113	6	2	81	kitchen	sun_aehawpgmrlhlvcow.tif	502824.212545	502824.471134	502825.211366	7.090086e-01	71	none	NaN	NaN
113	6	3	108	kitchen	sun_aymvwlarqodbwuoc.tif	502825.980968	502826.239557	502826.979786	6.839848e-01	98	none	NaN	NaN
113	6	4	65	kitchen	sun_aamedkxepzlwuxes.tif	502827.749387	502828.007977	502828.748209	8.257865e-01	55	none	NaN	NaN
113	6	5	87	kitchen	sun_agorklincwxrdtga.tif	502829.517808	502829.776394	502830.516569	8.174452e-01	77	none	NaN	NaN
113	6	6	90	kitchen	sun_ahdycvpopffkzzsu.tif	502831.286222	502831.544812	502832.284893	7.507150e-01	80	none	NaN	NaN
113	6	7	99	kitchen	sun_akcjzhbbjlbogpdi.tif	502833.054635	502833.313231	502834.053311	7.673976e-01	89	39	502835.778715	1
113	6	8	93	kitchen	sun_ahspylgoovwmwvgk.tif	502836.549771	502836.808362	502837.548426	7.006674e-01	83	none	NaN	NaN
113	6	9	62	kitchen	labelme_kxvouciolcpqplr.tif	502838.318189	502838.576774	502839.316968	6.673022e-01	52	none	NaN	NaN
113	6	10	69	kitchen	sun_abdenxonkemggwsq.tif	502840.086609	502840.345201	502841.085355	6.839848e-01	59	none	NaN	NaN
113	6	11	98	kitchen	sun_akchetnepxlcxhsu.tif	502841.855025	502842.113621	502842.853763	7.840801e-01	88	none	NaN	NaN
113	6	12	106	kitchen	sun_awcpdzzznmweyyhv.tif	502843.623450	502843.882035	502844.622207	7.924214e-01	96	none	NaN	NaN
113	6	13	109	kitchen	sun_aypmqwcualkenuoe.tif	502845.391864	502845.650455	502846.390671	6.923261e-01	99	none	NaN	NaN
113	6	14	100	kitchen	sun_amjjdeyrggfqgmom.tif	502847.160284	502847.418871	502848.158923	7.173499e-01	90	none	NaN	NaN
113	6	15	89	kitchen	sun_agzzivivdpnawacl.tif	502848.928694	502849.187288	502849.927437	8.257865e-01	79	none	NaN	NaN
113	6	16	103	kitchen	sun_aunzlwrbjumxhwdj.tif	502850.697121	502850.955711	502851.695942	6.923261e-01	93	none	NaN	NaN
113	6	17	78	kitchen	sun_adgqasybjyktddhj.tif	502852.465542	502852.724129	502853.464299	8.341278e-01	68	none	NaN	NaN
113	6	18	68	kitchen	sun_aaxxjlsuzvqlgylf.tif	502854.233958	502854.492548	502855.232713	8.257865e-01	58	none	NaN	NaN
113	6	19	71	kitchen	sun_abftihopvusyfakt.tif	502856.002373	502856.260969	502857.001194	7.090086e-01	61	none	NaN	NaN
113	6	20	105	kitchen	sun_avszsnwsbuqfgzbn.tif	502857.770800	502858.029383	502858.769647	6.506197e-01	95	37	502860.426485	0
113	6	21	73	kitchen	sun_abrcnpqqhmjwekyf.tif	502861.199213	502861.457789	502862.198013	7.590563e-01	63	none	NaN	NaN
113	6	22	67	kitchen	sun_aarfiyshqohlwkmo.tif	502862.967609	502863.226205	502863.966303	7.757389e-01	57	none	NaN	NaN
113	6	23	86	kitchen	sun_aggjlwcdjsjcaemh.tif	502864.736030	502864.994622	502865.734880	8.007627e-01	76	none	NaN	NaN
113	6	24	74	kitchen	sun_acfmftudsenhrfhy.tif	502866.504450	502866.763034	502867.503169	6.589610e-01	64	none	NaN	NaN
113	6	25	66	kitchen	sun_aapllqyqlykszopd.tif	502868.272868	502868.531458	502869.271680	7.173499e-01	56	none	NaN	NaN
113	6	26	95	kitchen	sun_aixorpehvfykdynp.tif	502870.041285	502870.299876	502871.039924	7.590563e-01	85	none	NaN	NaN
113	6	27	70	kitchen	sun_abdxkyyxwfskuaqb.tif	502871.801364	502872.059954	502872.800023	8.341278e-01	60	39	502874.066642	1
113	6	28	75	kitchen	sun_acgtpgfybqjmzeyw.tif	502874.837705	502875.096292	502875.836367	8.424691e-01	65	none	NaN	NaN
113	6	29	94	kitchen	sun_ahywdevtimnqcsln.tif	502876.606126	502876.864715	502877.604811	7.423737e-01	84	none	NaN	NaN
113	6	30	85	kitchen	sun_afuyedyxivkhecmu.tif	502878.374541	502878.633131	502879.373203	7.840801e-01	75	none	NaN	NaN
113	6	31	107	kitchen	sun_axyyrmzcupyhlivc.tif	502880.142961	502880.401550	502881.141761	8.174452e-01	97	none	NaN	NaN
113	6	32	91	kitchen	sun_ahljzhgcdpomplvg.tif	502881.911400	502882.169969	502882.910058	7.256912e-01	81	none	NaN	NaN
113	6	33	96	kitchen	sun_ajcbwwvdlsvjyzje.tif	502883.679798	502883.938388	502884.678494	7.757389e-01	86	39	502887.130727	1
113	6	34	82	kitchen	sun_aenotlpyftoioydp.tif	502887.908993	502888.167599	502888.907671	7.590563e-01	72	37	502890.498899	1
113	6	35	102	kitchen	sun_auaiucuqpdausiva.tif	502891.270652	502891.529243	502892.269500	8.007627e-01	92	37	502893.258891	1
113	6	36	72	kitchen	sun_abpwyqmlzafvklqo.tif	502894.031722	502894.290310	502895.030359	7.256912e-01	62	none	NaN	NaN
113	6	37	84	kitchen	sun_aexklacwqwezaorf.tif	502895.800139	502896.058728	502896.798961	7.673976e-01	74	39	502898.098823	1
113	6	38	101	kitchen	sun_aqeaevwwwjoqhzvl.tif	502898.869848	502899.128442	502899.868521	7.673976e-01	91	none	NaN	NaN
113	6	39	110	kitchen	sun_azmutvzbxypaceni.tif	502900.638267	502900.896860	502901.637057	6.589610e-01	100	none	NaN	NaN
113	6	40	83	kitchen	sun_aeqdocilnnpuvuhx.tif	502902.406684	502902.665273	502903.405462	8.007627e-01	73	none	NaN	NaN
113	6	41	77	kitchen	sun_acxkpeoqbwcxfvip.tif	502904.175107	502904.433691	502905.173798	8.257865e-01	67	none	NaN	NaN
113	6	42	63	kitchen	labelme_rykdqxenmhulbdn.tif	502905.943523	502906.202113	502906.942251	6.506197e-01	53	none	NaN	NaN
113	6	43	80	kitchen	sun_aegoxogugdkwpmpj.tif	502907.711945	502907.970530	502908.710713	7.090086e-01	70	none	NaN	NaN
113	6	44	79	kitchen	sun_admlmbcdswaszruo.tif	502909.480360	502909.738947	502910.479103	7.924214e-01	69	37	502912.034711	1
113	6	45	61	kitchen	labelme_brsyyvweiuaazfr.tif	502912.808660	502913.067249	502913.807432	7.006674e-01	51	none	NaN	NaN
113	6	46	97	kitchen	sun_ajkqhtgcbgpcwrwn.tif	502914.577076	502914.835665	502915.575756	7.090086e-01	87	none	NaN	NaN
113	6	47	88	kitchen	sun_agubuxuukhzyzpdp.tif	502916.345495	502916.604086	502917.344143	7.340325e-01	78	none	NaN	NaN
113	6	48	104	kitchen	sun_auticobqsbwgoppi.tif	502918.113917	502918.372503	502919.112618	7.757389e-01	94	none	NaN	NaN
113	6	49	76	kitchen	sun_acwjdupvyjsugpay.tif	502919.882335	502920.140925	502920.881147	7.590563e-01	66	none	NaN	NaN
113	6	50	92	kitchen	sun_ahpczsiumwwocjkv.tif	502921.650756	502921.909340	502922.649560	7.173499e-01	82	none	NaN	NaN
113	6	51	105	kitchen	sun_avszsnwsbuqfgzbn.tif	502923.419171	502923.677751	502924.417866	8.257865e-01	95	none	NaN	NaN
113	6	52	92	kitchen	sun_ahpczsiumwwocjkv.tif	502925.187592	502925.446176	502926.186421	8.341278e-01	82	none	NaN	NaN
113	6	53	83	kitchen	sun_aeqdocilnnpuvuhx.tif	502926.956008	502927.214598	502927.954798	7.340325e-01	73	none	NaN	NaN
113	6	54	94	kitchen	sun_ahywdevtimnqcsln.tif	502928.724429	502928.983020	502929.723155	8.091040e-01	84	none	NaN	NaN
113	6	55	101	kitchen	sun_aqeaevwwwjoqhzvl.tif	502930.492843	502930.751435	502931.491607	7.006674e-01	91	none	NaN	NaN
113	6	56	81	kitchen	sun_aehawpgmrlhlvcow.tif	502932.261266	502932.519855	502933.260102	6.839848e-01	71	none	NaN	NaN
113	6	57	87	kitchen	sun_agorklincwxrdtga.tif	502934.029685	502934.288272	502935.028494	8.091040e-01	77	none	NaN	NaN
113	6	58	89	kitchen	sun_agzzivivdpnawacl.tif	502935.798103	502936.056692	502936.796941	7.256912e-01	79	none	NaN	NaN
113	6	59	74	kitchen	sun_acfmftudsenhrfhy.tif	502937.566523	502937.825106	502938.565357	8.007627e-01	64	none	NaN	NaN
113	6	60	67	kitchen	sun_aarfiyshqohlwkmo.tif	502939.334936	502939.593528	502940.333670	6.923261e-01	57	none	NaN	NaN
113	6	61	63	kitchen	labelme_rykdqxenmhulbdn.tif	502941.103360	502941.361948	502942.102070	6.673022e-01	53	none	NaN	NaN
113	6	62	84	kitchen	sun_aexklacwqwezaorf.tif	502942.871773	502943.130364	502943.870622	6.589610e-01	74	none	NaN	NaN
113	6	63	103	kitchen	sun_aunzlwrbjumxhwdj.tif	502944.640195	502944.898780	502945.639038	6.923261e-01	93	37	502947.514828	1
113	6	64	91	kitchen	sun_ahljzhgcdpomplvg.tif	502948.285475	502948.544066	502949.284286	6.923261e-01	81	none	NaN	NaN
113	6	65	62	kitchen	labelme_kxvouciolcpqplr.tif	502950.053894	502950.312485	502951.052633	7.423737e-01	52	39	502952.578846	1
113	6	66	106	kitchen	sun_awcpdzzznmweyyhv.tif	502953.357163	502953.615757	502954.355846	6.673022e-01	96	none	NaN	NaN
113	6	67	68	kitchen	sun_aaxxjlsuzvqlgylf.tif	502955.125582	502955.384176	502956.124363	7.507150e-01	58	none	NaN	NaN
113	6	68	65	kitchen	sun_aamedkxepzlwuxes.tif	502956.894000	502957.152594	502957.892856	7.340325e-01	55	none	NaN	NaN
113	6	69	96	kitchen	sun_ajcbwwvdlsvjyzje.tif	502958.662421	502958.921013	502959.661151	7.006674e-01	86	none	NaN	NaN
113	6	70	110	kitchen	sun_azmutvzbxypaceni.tif	502960.430841	502960.689430	502961.429549	8.424691e-01	100	none	NaN	NaN
113	6	71	77	kitchen	sun_acxkpeoqbwcxfvip.tif	502962.199257	502962.457846	502963.198005	8.508104e-01	67	39	502966.994874	1
113	6	72	86	kitchen	sun_aggjlwcdjsjcaemh.tif	502967.771446	502968.030034	502968.770255	7.924214e-01	76	none	NaN	NaN
113	6	73	64	kitchen	sun_aadbddgrdsjugojn.tif	502969.539867	502969.798458	502970.538712	6.756435e-01	54	none	NaN	NaN
113	6	74	76	kitchen	sun_acwjdupvyjsugpay.tif	502971.308281	502971.566869	502972.307135	8.174452e-01	66	none	NaN	NaN
113	6	75	104	kitchen	sun_auticobqsbwgoppi.tif	502973.076702	502973.335287	502974.075548	8.508104e-01	94	none	NaN	NaN
113	6	76	95	kitchen	sun_aixorpehvfykdynp.tif	502974.845122	502975.103710	502975.843778	7.507150e-01	85	none	NaN	NaN
113	6	77	109	kitchen	sun_aypmqwcualkenuoe.tif	502976.613538	502976.872130	502977.612352	8.341278e-01	99	none	NaN	NaN
113	6	78	108	kitchen	sun_aymvwlarqodbwuoc.tif	502978.381958	502978.640549	502979.380593	6.756435e-01	98	37	502980.722796	1
113	6	79	100	kitchen	sun_amjjdeyrggfqgmom.tif	502981.493379	502981.751981	502982.492150	7.590563e-01	90	none	NaN	NaN
113	6	80	99	kitchen	sun_akcjzhbbjlbogpdi.tif	502983.261797	502983.520387	502984.260449	6.589610e-01	89	none	NaN	NaN
113	6	81	70	kitchen	sun_abdxkyyxwfskuaqb.tif	502985.030215	502985.288801	502986.028899	7.173499e-01	60	none	NaN	NaN
113	6	82	75	kitchen	sun_acgtpgfybqjmzeyw.tif	502986.798630	502987.057218	502987.797325	6.673022e-01	65	37	502988.970702	1
113	6	83	90	kitchen	sun_ahdycvpopffkzzsu.tif	502989.743216	502990.001804	502990.741854	6.756435e-01	80	none	NaN	NaN
113	6	84	97	kitchen	sun_ajkqhtgcbgpcwrwn.tif	502991.503292	502991.761882	502992.501985	6.839848e-01	87	none	NaN	NaN
113	6	85	88	kitchen	sun_agubuxuukhzyzpdp.tif	502993.271711	502993.530299	502994.270463	6.506197e-01	78	none	NaN	NaN
113	6	86	80	kitchen	sun_aegoxogugdkwpmpj.tif	502995.040132	502995.298721	502996.038834	8.091040e-01	70	none	NaN	NaN
113	6	87	82	kitchen	sun_aenotlpyftoioydp.tif	502996.808546	502997.067134	502997.807348	7.256912e-01	72	none	NaN	NaN
113	6	88	102	kitchen	sun_auaiucuqpdausiva.tif	502998.576968	502998.835560	502999.575758	7.924214e-01	92	39	503000.762914	1
113	6	89	66	kitchen	sun_aapllqyqlykszopd.tif	503001.538235	503001.796826	503002.536901	7.840801e-01	56	none	NaN	NaN
113	6	90	78	kitchen	sun_adgqasybjyktddhj.tif	503003.306655	503003.565244	503004.305330	8.091040e-01	68	none	NaN	NaN
113	6	91	61	kitchen	labelme_brsyyvweiuaazfr.tif	503005.075070	503005.333660	503006.073796	8.174452e-01	51	none	NaN	NaN
113	6	92	79	kitchen	sun_admlmbcdswaszruo.tif	503006.843493	503007.102082	503007.842306	8.424691e-01	69	39	503010.530544	0
113	6	93	73	kitchen	sun_abrcnpqqhmjwekyf.tif	503011.306247	503011.564832	503012.304887	7.673976e-01	63	none	NaN	NaN
113	6	94	69	kitchen	sun_abdenxonkemggwsq.tif	503013.074662	503013.333251	503014.073344	6.756435e-01	59	none	NaN	NaN
113	6	95	98	kitchen	sun_akchetnepxlcxhsu.tif	503014.843085	503015.101675	503015.841773	7.757389e-01	88	none	NaN	NaN
113	6	96	107	kitchen	sun_axyyrmzcupyhlivc.tif	503016.611501	503016.870089	503017.610334	7.840801e-01	97	none	NaN	NaN
113	6	97	71	kitchen	sun_abftihopvusyfakt.tif	503018.379918	503018.638514	503019.378609	7.507150e-01	61	none	NaN	NaN
113	6	98	85	kitchen	sun_afuyedyxivkhecmu.tif	503020.148341	503020.406929	503021.146977	7.340325e-01	75	none	NaN	NaN
113	6	99	93	kitchen	sun_ahspylgoovwmwvgk.tif	503021.916761	503022.175349	503022.915507	7.423737e-01	83	none	NaN	NaN
113	6	100	72	kitchen	sun_abpwyqmlzafvklqo.tif	503023.685175	503023.943764	503024.683856	7.423737e-01	62	none	NaN	NaN
113	7	1	30	bathroom	sun_ajlawzvmubibwbpy.tif	503044.180483	503044.439073	503045.129261	6.673022e-01	20	37	503046.258871	1
113	7	2	24	bathroom	sun_agrwbmhcpmfuwmsg.tif	503047.033309	503047.291896	503047.982012	7.423737e-01	14	none	NaN	NaN
113	7	3	18	bathroom	sun_acgyywnybuveqsro.tif	503048.751680	503049.010270	503049.700461	7.673976e-01	8	none	NaN	NaN
113	7	4	11	bathroom	labelme_sfxiulhjbhlyiyt.tif	503050.470048	503050.728636	503051.418667	7.507150e-01	1	none	NaN	NaN
113	7	5	36	bathroom	sun_ambriybtogmepttm.tif	503052.188412	503052.447006	503053.137209	7.840801e-01	26	none	NaN	NaN
113	7	6	59	bathroom	sun_axyrejkiiaqiurjk.tif	503053.906783	503054.165372	503054.855392	8.007627e-01	49	39	503056.746697	1
113	7	7	41	bathroom	sun_aoybiabnpadelefl.tif	503057.518700	503057.777288	503058.467503	7.006674e-01	31	none	NaN	NaN
113	7	8	27	bathroom	sun_ahcvzmoyaycdoftf.tif	503059.237064	503059.495657	503060.185663	7.340325e-01	17	none	NaN	NaN
113	7	9	33	bathroom	sun_aljolscmmzydegqp.tif	503060.955438	503061.214028	503061.904115	7.423737e-01	23	none	NaN	NaN
113	7	10	19	bathroom	sun_aclfzgynxzxlbepz.tif	503062.673808	503062.932393	503063.622526	6.756435e-01	9	none	NaN	NaN
113	7	11	50	bathroom	sun_aspsyogrekjtfozg.tif	503064.392173	503064.650763	503065.340808	7.507150e-01	40	none	NaN	NaN
113	7	12	25	bathroom	sun_agyqfjcfkdcydepw.tif	503066.110541	503066.369134	503067.059202	6.506197e-01	15	37	503068.266797	1
113	7	13	48	bathroom	sun_aqrpegblszgcoujh.tif	503069.038441	503069.297032	503069.987053	8.007627e-01	38	none	NaN	NaN
113	7	14	52	bathroom	sun_aunuadmjocsddsrl.tif	503070.756811	503071.015399	503071.705493	8.341278e-01	42	none	NaN	NaN
113	7	15	45	bathroom	sun_apkxzenqapsujocq.tif	503072.475184	503072.733773	503073.423972	7.924214e-01	35	none	NaN	NaN
113	7	16	54	bathroom	sun_auzqhkafidnkrwmo.tif	503074.193551	503074.452143	503075.142222	6.839848e-01	44	none	NaN	NaN
113	7	17	43	bathroom	sun_apjevzvycyhuqghb.tif	503075.911923	503076.170507	503076.860546	6.923261e-01	33	37	503078.770640	1
113	7	18	23	bathroom	sun_aghyqhbptboemmoq.tif	503079.548856	503079.807452	503080.497541	7.590563e-01	13	none	NaN	NaN
113	7	19	57	bathroom	sun_axldvoqbuvuggfmq.tif	503081.267225	503081.525813	503082.216013	7.507150e-01	47	none	NaN	NaN
113	7	20	13	bathroom	sun_aavhrsfjbserjtht.tif	503082.985599	503083.244184	503083.934311	8.174452e-01	3	none	NaN	NaN
113	7	21	28	bathroom	sun_ahijqszoswveeyji.tif	503084.703963	503084.962554	503085.652680	7.340325e-01	18	39	503087.754669	1
113	7	22	51	bathroom	sun_atstyziqcmkahyxk.tif	503088.532754	503088.791343	503089.481381	7.256912e-01	41	none	NaN	NaN
113	7	23	55	bathroom	sun_avhrdrntsqrjzccq.tif	503090.251126	503090.509717	503091.200291	7.090086e-01	45	none	NaN	NaN
113	7	24	40	bathroom	sun_aofnryafpsjimzsb.tif	503091.969495	503092.228086	503092.918098	6.923261e-01	30	none	NaN	NaN
113	7	25	44	bathroom	sun_apkruvsevgegsdwp.tif	503093.687865	503093.946452	503094.636547	8.091040e-01	34	none	NaN	NaN
113	7	26	42	bathroom	sun_apeeialkgkuxddgh.tif	503095.406236	503095.664826	503096.354959	8.174452e-01	32	none	NaN	NaN
113	7	27	20	bathroom	sun_afcoljnjfoxjtgja.tif	503097.124604	503097.383195	503098.073226	7.173499e-01	10	none	NaN	NaN
113	7	28	17	bathroom	sun_acegryoqftbzowsg.tif	503098.842974	503099.101560	503099.791587	8.257865e-01	7	none	NaN	NaN
113	7	29	37	bathroom	sun_amzlamotzwfkwjco.tif	503100.561340	503100.819929	503101.510034	6.923261e-01	27	none	NaN	NaN
113	7	30	16	bathroom	sun_acduarbnmmoglmiv.tif	503102.279708	503102.538302	503103.228471	6.839848e-01	6	none	NaN	NaN
113	7	31	34	bathroom	sun_alkosphxlxwjwgjd.tif	503103.998083	503104.256672	503104.946685	8.341278e-01	24	none	NaN	NaN
113	7	32	49	bathroom	sun_asfwthctfqerjvxr.tif	503105.716446	503105.975039	503106.665053	7.673976e-01	39	none	NaN	NaN
113	7	33	31	bathroom	sun_akiytfaagpdsphgz.tif	503107.434819	503107.693411	503108.383581	7.924214e-01	21	none	NaN	NaN
113	7	34	53	bathroom	sun_ausgutylgojavyoq.tif	503109.153190	503109.411774	503110.101958	7.090086e-01	43	37	503113.002900	0
113	7	35	39	bathroom	sun_anryaplzeujmzfkd.tif	503113.774433	503114.033023	503114.723144	8.424691e-01	29	none	NaN	NaN
113	7	36	21	bathroom	sun_aggnnqpdorgxpvce.tif	503115.492805	503115.751390	503116.441493	7.924214e-01	11	39	503117.882944	1
113	7	37	56	bathroom	sun_awnqiikzaispgmwo.tif	503118.654265	503118.912858	503119.602951	7.340325e-01	46	none	NaN	NaN
113	7	38	14	bathroom	sun_abapwbhyhkfixyex.tif	503120.372638	503120.631231	503121.321358	8.174452e-01	4	none	NaN	NaN
113	7	39	60	bathroom	sun_azqyogdvyhahyram.tif	503122.091007	503122.349598	503123.039788	7.590563e-01	50	none	NaN	NaN
113	7	40	38	bathroom	sun_anhioqovhscjqqwb.tif	503123.809376	503124.067963	503124.758034	8.257865e-01	28	none	NaN	NaN
113	7	41	47	bathroom	sun_apynckhmoftszqoq.tif	503125.527746	503125.786335	503126.476338	6.506197e-01	37	none	NaN	NaN
113	7	42	12	bathroom	sun_aapitsgbtktqubfy.tif	503127.246114	503127.504665	503128.194787	8.007627e-01	2	none	NaN	NaN
113	7	43	22	bathroom	sun_agguqiubmwhqqunb.tif	503128.964479	503129.223072	503129.913228	7.423737e-01	12	37	503130.978929	1
113	7	44	46	bathroom	sun_apmqjbnwghzuhhzh.tif	503131.750575	503132.009167	503132.699342	8.341278e-01	36	none	NaN	NaN
113	7	45	58	bathroom	sun_axxbkopsgyouuebh.tif	503133.468945	503133.727536	503134.417647	8.257865e-01	48	none	NaN	NaN
113	7	46	35	bathroom	sun_alotolagknyrgtsk.tif	503135.187310	503135.445907	503136.136013	8.424691e-01	25	none	NaN	NaN
113	7	47	26	bathroom	sun_ahaulkltgpkeeemi.tif	503136.905685	503137.164273	503137.854404	8.091040e-01	16	none	NaN	NaN
113	7	48	29	bathroom	sun_ahqjwnzgolcaoidx.tif	503138.624055	503138.882636	503139.572748	6.673022e-01	19	none	NaN	NaN
113	7	49	32	bathroom	sun_aleqenyvunhactkl.tif	503140.342422	503140.601010	503141.291125	7.590563e-01	22	none	NaN	NaN
113	7	50	15	bathroom	sun_abjtwfukuwddzted.tif	503142.060794	503142.319383	503143.009387	6.589610e-01	5	none	NaN	NaN
113	7	51	16	bathroom	sun_acduarbnmmoglmiv.tif	503143.779162	503144.037752	503144.727855	7.173499e-01	6	none	NaN	NaN
113	7	52	53	bathroom	sun_ausgutylgojavyoq.tif	503145.497525	503145.756119	503146.446145	8.341278e-01	43	none	NaN	NaN
113	7	53	23	bathroom	sun_aghyqhbptboemmoq.tif	503147.215895	503147.474490	503148.164680	7.757389e-01	13	none	NaN	NaN
113	7	54	17	bathroom	sun_acegryoqftbzowsg.tif	503148.934266	503149.192861	503149.883066	6.673022e-01	7	none	NaN	NaN
113	7	55	32	bathroom	sun_aleqenyvunhactkl.tif	503150.652635	503150.911228	503151.601295	8.424691e-01	22	37	503152.626519	1
113	7	56	37	bathroom	sun_amzlamotzwfkwjco.tif	503153.397024	503153.655613	503154.345799	8.091040e-01	27	none	NaN	NaN
113	7	57	59	bathroom	sun_axyrejkiiaqiurjk.tif	503155.115391	503155.373982	503156.064005	7.507150e-01	49	39	503157.690861	1
113	7	58	41	bathroom	sun_aoybiabnpadelefl.tif	503158.468711	503158.727300	503159.417561	7.006674e-01	31	none	NaN	NaN
113	7	59	26	bathroom	sun_ahaulkltgpkeeemi.tif	503160.187085	503160.445672	503161.135885	8.091040e-01	16	none	NaN	NaN
113	7	60	55	bathroom	sun_avhrdrntsqrjzccq.tif	503161.905456	503162.164041	503162.854049	6.756435e-01	45	none	NaN	NaN
113	7	61	40	bathroom	sun_aofnryafpsjimzsb.tif	503163.623823	503163.882442	503164.572444	7.340325e-01	30	none	NaN	NaN
113	7	62	33	bathroom	sun_aljolscmmzydegqp.tif	503165.342190	503165.600778	503166.290850	6.923261e-01	23	none	NaN	NaN
113	7	63	24	bathroom	sun_agrwbmhcpmfuwmsg.tif	503167.060556	503167.319149	503168.009206	7.590563e-01	14	none	NaN	NaN
113	7	64	39	bathroom	sun_anryaplzeujmzfkd.tif	503168.778925	503169.037517	503169.727514	8.508104e-01	29	none	NaN	NaN
113	7	65	38	bathroom	sun_anhioqovhscjqqwb.tif	503170.488959	503170.747548	503171.437659	6.589610e-01	28	none	NaN	NaN
113	7	66	15	bathroom	sun_abjtwfukuwddzted.tif	503172.207326	503172.465915	503173.155962	6.756435e-01	5	none	NaN	NaN
113	7	67	42	bathroom	sun_apeeialkgkuxddgh.tif	503173.925694	503174.184287	503174.874401	7.840801e-01	32	none	NaN	NaN
113	7	68	11	bathroom	labelme_sfxiulhjbhlyiyt.tif	503175.644067	503175.902648	503176.592806	8.508104e-01	1	none	NaN	NaN
113	7	69	12	bathroom	sun_aapitsgbtktqubfy.tif	503177.362431	503177.621023	503178.311158	6.839848e-01	2	none	NaN	NaN
113	7	70	43	bathroom	sun_apjevzvycyhuqghb.tif	503179.080804	503179.339392	503180.029537	7.256912e-01	33	none	NaN	NaN
113	7	71	47	bathroom	sun_apynckhmoftszqoq.tif	503180.799192	503181.057762	503181.747914	8.007627e-01	37	37	503184.514770	1
113	7	72	34	bathroom	sun_alkosphxlxwjwgjd.tif	503185.286949	503185.545539	503186.235556	7.590563e-01	24	none	NaN	NaN
113	7	73	30	bathroom	sun_ajlawzvmubibwbpy.tif	503187.005320	503187.263909	503187.953979	7.173499e-01	20	none	NaN	NaN
113	7	74	56	bathroom	sun_awnqiikzaispgmwo.tif	503188.723688	503188.982278	503189.672277	6.589610e-01	46	none	NaN	NaN
113	7	75	36	bathroom	sun_ambriybtogmepttm.tif	503190.442063	503190.700642	503191.390741	8.174452e-01	26	none	NaN	NaN
113	7	76	46	bathroom	sun_apmqjbnwghzuhhzh.tif	503192.160427	503192.419015	503193.109112	6.673022e-01	36	none	NaN	NaN
113	7	77	14	bathroom	sun_abapwbhyhkfixyex.tif	503193.878797	503194.137382	503194.827569	7.757389e-01	4	none	NaN	NaN
113	7	78	19	bathroom	sun_aclfzgynxzxlbepz.tif	503195.597166	503195.855758	503196.545878	6.923261e-01	9	none	NaN	NaN
113	7	79	25	bathroom	sun_agyqfjcfkdcydepw.tif	503197.315536	503197.574125	503198.264161	7.006674e-01	15	none	NaN	NaN
113	7	80	13	bathroom	sun_aavhrsfjbserjtht.tif	503199.033904	503199.292494	503199.982623	7.256912e-01	3	none	NaN	NaN
113	7	81	60	bathroom	sun_azqyogdvyhahyram.tif	503200.752269	503201.010859	503201.700991	7.423737e-01	50	none	NaN	NaN
113	7	82	50	bathroom	sun_aspsyogrekjtfozg.tif	503202.470641	503202.729229	503203.419271	6.506197e-01	40	39	503205.002788	1
113	7	83	22	bathroom	sun_agguqiubmwhqqunb.tif	503205.773914	503206.032510	503206.722668	6.589610e-01	12	none	NaN	NaN
113	7	84	20	bathroom	sun_afcoljnjfoxjtgja.tif	503207.492287	503207.750875	503208.441097	8.257865e-01	10	none	NaN	NaN
113	7	85	18	bathroom	sun_acgyywnybuveqsro.tif	503209.210647	503209.469240	503210.159306	6.756435e-01	8	none	NaN	NaN
113	7	86	58	bathroom	sun_axxbkopsgyouuebh.tif	503210.929024	503211.187609	503211.877820	7.757389e-01	48	none	NaN	NaN
113	7	87	35	bathroom	sun_alotolagknyrgtsk.tif	503212.647393	503212.905984	503213.596192	7.256912e-01	25	none	NaN	NaN
113	7	88	44	bathroom	sun_apkruvsevgegsdwp.tif	503214.365759	503214.624349	503215.314406	7.006674e-01	34	none	NaN	NaN
113	7	89	48	bathroom	sun_aqrpegblszgcoujh.tif	503216.084127	503216.342718	503217.032766	7.840801e-01	38	none	NaN	NaN
113	7	90	45	bathroom	sun_apkxzenqapsujocq.tif	503217.802502	503218.061082	503218.751248	7.840801e-01	35	none	NaN	NaN
113	7	91	57	bathroom	sun_axldvoqbuvuggfmq.tif	503219.520864	503219.779455	503220.469507	7.090086e-01	47	37	503222.658775	0
113	7	92	51	bathroom	sun_atstyziqcmkahyxk.tif	503223.433077	503223.691666	503224.381702	7.173499e-01	41	none	NaN	NaN
113	7	93	31	bathroom	sun_akiytfaagpdsphgz.tif	503225.151445	503225.410034	503226.100059	7.924214e-01	21	none	NaN	NaN
113	7	94	29	bathroom	sun_ahqjwnzgolcaoidx.tif	503226.869817	503227.128406	503227.818566	8.257865e-01	19	none	NaN	NaN
113	7	95	54	bathroom	sun_auzqhkafidnkrwmo.tif	503228.588187	503228.846778	503229.536782	8.424691e-01	44	37	503230.754710	1
113	7	96	49	bathroom	sun_asfwthctfqerjvxr.tif	503231.532773	503231.791356	503232.481563	7.757389e-01	39	none	NaN	NaN
113	7	97	52	bathroom	sun_aunuadmjocsddsrl.tif	503233.251140	503233.509723	503234.199819	7.673976e-01	42	none	NaN	NaN
113	7	98	28	bathroom	sun_ahijqszoswveeyji.tif	503234.969509	503235.228096	503235.918294	6.839848e-01	18	none	NaN	NaN
113	7	99	21	bathroom	sun_aggnnqpdorgxpvce.tif	503236.687875	503236.946464	503237.636513	7.090086e-01	11	37	503238.666808	1
113	7	100	27	bathroom	sun_ahcvzmoyaycdoftf.tif	503239.440603	503239.699196	503240.389253	7.673976e-01	17	none	NaN	NaN
113	8	1	66	kitchen	sun_aapllqyqlykszopd.tif	503246.639403	503246.897993	503247.579751	6.756435e-01	56	none	NaN	NaN
113	8	2	91	kitchen	sun_ahljzhgcdpomplvg.tif	503248.349431	503248.608020	503249.289889	7.590563e-01	81	37	503250.178972	1
113	8	3	104	kitchen	sun_auticobqsbwgoppi.tif	503250.952005	503251.210598	503251.892445	8.508104e-01	94	none	NaN	NaN
113	8	4	109	kitchen	sun_aypmqwcualkenuoe.tif	503252.662040	503252.920625	503253.602469	7.757389e-01	99	none	NaN	NaN
113	8	5	81	kitchen	sun_aehawpgmrlhlvcow.tif	503254.372064	503254.630656	503255.312366	7.090086e-01	71	37	503256.202885	1
113	8	6	101	kitchen	sun_aqeaevwwwjoqhzvl.tif	503256.974641	503257.233235	503257.914930	7.256912e-01	91	none	NaN	NaN
113	8	7	85	kitchen	sun_afuyedyxivkhecmu.tif	503258.684669	503258.943259	503259.625094	8.257865e-01	75	none	NaN	NaN
113	8	8	83	kitchen	sun_aeqdocilnnpuvuhx.tif	503260.394698	503260.653288	503261.335004	6.923261e-01	73	none	NaN	NaN
113	8	9	80	kitchen	sun_aegoxogugdkwpmpj.tif	503262.104727	503262.363313	503263.045014	8.091040e-01	70	none	NaN	NaN
113	8	10	86	kitchen	sun_aggjlwcdjsjcaemh.tif	503263.806409	503264.064999	503264.746790	6.673022e-01	76	39	503266.442811	1
113	8	11	65	kitchen	sun_aamedkxepzlwuxes.tif	503267.218121	503267.476716	503268.158400	7.006674e-01	55	none	NaN	NaN
113	8	12	98	kitchen	sun_akchetnepxlcxhsu.tif	503268.928151	503269.186745	503269.868516	7.006674e-01	88	none	NaN	NaN
113	8	13	77	kitchen	sun_acxkpeoqbwcxfvip.tif	503270.638177	503270.896770	503271.578595	8.007627e-01	67	none	NaN	NaN
113	8	14	96	kitchen	sun_ajcbwwvdlsvjyzje.tif	503272.348211	503272.606796	503273.288543	8.257865e-01	86	none	NaN	NaN
113	8	15	84	kitchen	sun_aexklacwqwezaorf.tif	503274.058237	503274.316825	503274.998544	7.256912e-01	74	39	503276.626898	1
113	8	16	79	kitchen	sun_admlmbcdswaszruo.tif	503277.403215	503277.661800	503278.343545	7.507150e-01	69	none	NaN	NaN
113	8	17	89	kitchen	sun_agzzivivdpnawacl.tif	503279.113244	503279.371834	503280.053556	8.424691e-01	79	37	503280.930826	1
113	8	18	92	kitchen	sun_ahpczsiumwwocjkv.tif	503281.707483	503281.966070	503282.647805	8.424691e-01	82	none	NaN	NaN
113	8	19	93	kitchen	sun_ahspylgoovwmwvgk.tif	503283.417503	503283.676096	503284.357856	7.757389e-01	83	39	503290.050691	1
113	8	20	87	kitchen	sun_agorklincwxrdtga.tif	503290.824843	503291.083436	503291.765205	7.840801e-01	77	37	503292.626818	1
113	8	21	68	kitchen	sun_aaxxjlsuzvqlgylf.tif	503293.402404	503293.660988	503294.342866	6.839848e-01	58	none	NaN	NaN
113	8	22	76	kitchen	sun_acwjdupvyjsugpay.tif	503295.112427	503295.371011	503296.052772	6.589610e-01	66	none	NaN	NaN
113	8	23	67	kitchen	sun_aarfiyshqohlwkmo.tif	503296.822456	503297.081046	503297.762724	6.589610e-01	57	none	NaN	NaN
113	8	24	97	kitchen	sun_ajkqhtgcbgpcwrwn.tif	503298.532483	503298.791075	503299.472842	7.507150e-01	87	none	NaN	NaN
113	8	25	110	kitchen	sun_azmutvzbxypaceni.tif	503300.242513	503300.501096	503301.182844	7.173499e-01	100	none	NaN	NaN
113	8	26	105	kitchen	sun_avszsnwsbuqfgzbn.tif	503301.952537	503302.211123	503302.892990	7.840801e-01	95	none	NaN	NaN
113	8	27	70	kitchen	sun_abdxkyyxwfskuaqb.tif	503303.662565	503303.921153	503304.602902	8.508104e-01	60	none	NaN	NaN
113	8	28	69	kitchen	sun_abdenxonkemggwsq.tif	503305.372594	503305.631185	503306.312967	7.507150e-01	59	none	NaN	NaN
113	8	29	64	kitchen	sun_aadbddgrdsjugojn.tif	503307.082622	503307.341211	503308.022925	8.424691e-01	54	none	NaN	NaN
113	8	30	72	kitchen	sun_abpwyqmlzafvklqo.tif	503308.792649	503309.051237	503309.732946	7.673976e-01	62	none	NaN	NaN
113	8	31	71	kitchen	sun_abftihopvusyfakt.tif	503310.502674	503310.761265	503311.442924	7.590563e-01	61	none	NaN	NaN
113	8	32	108	kitchen	sun_aymvwlarqodbwuoc.tif	503312.204361	503312.462950	503313.144694	8.341278e-01	98	none	NaN	NaN
113	8	33	102	kitchen	sun_auaiucuqpdausiva.tif	503313.914390	503314.172974	503314.854829	7.340325e-01	92	none	NaN	NaN
113	8	34	75	kitchen	sun_acgtpgfybqjmzeyw.tif	503315.624417	503315.883007	503316.564669	7.924214e-01	65	none	NaN	NaN
113	8	35	100	kitchen	sun_amjjdeyrggfqgmom.tif	503317.334441	503317.593030	503318.274826	8.257865e-01	90	none	NaN	NaN
113	8	36	74	kitchen	sun_acfmftudsenhrfhy.tif	503319.044473	503319.303066	503319.984828	7.673976e-01	64	none	NaN	NaN
113	8	37	73	kitchen	sun_abrcnpqqhmjwekyf.tif	503320.754497	503321.013088	503321.694788	8.007627e-01	63	none	NaN	NaN
113	8	38	94	kitchen	sun_ahywdevtimnqcsln.tif	503322.464529	503322.723121	503323.404791	8.174452e-01	84	none	NaN	NaN
113	8	39	106	kitchen	sun_awcpdzzznmweyyhv.tif	503324.174553	503324.433147	503325.114929	6.923261e-01	96	none	NaN	NaN
113	8	40	103	kitchen	sun_aunzlwrbjumxhwdj.tif	503325.884583	503326.143168	503326.824980	7.173499e-01	93	none	NaN	NaN
113	8	41	99	kitchen	sun_akcjzhbbjlbogpdi.tif	503327.594611	503327.853195	503328.534886	7.423737e-01	89	none	NaN	NaN
113	8	42	63	kitchen	labelme_rykdqxenmhulbdn.tif	503329.304637	503329.563225	503330.245053	8.257865e-01	53	none	NaN	NaN
113	8	43	61	kitchen	labelme_brsyyvweiuaazfr.tif	503331.014663	503331.273255	503331.955054	7.507150e-01	51	none	NaN	NaN
113	8	44	88	kitchen	sun_agubuxuukhzyzpdp.tif	503332.724691	503332.983279	503333.665149	7.590563e-01	78	none	NaN	NaN
113	8	45	95	kitchen	sun_aixorpehvfykdynp.tif	503334.434716	503334.693310	503335.375071	7.090086e-01	85	none	NaN	NaN
113	8	46	62	kitchen	labelme_kxvouciolcpqplr.tif	503336.144744	503336.403335	503337.085169	7.840801e-01	52	none	NaN	NaN
113	8	47	78	kitchen	sun_adgqasybjyktddhj.tif	503337.854777	503338.113360	503338.795098	8.424691e-01	68	none	NaN	NaN
113	8	48	82	kitchen	sun_aenotlpyftoioydp.tif	503339.564799	503339.823388	503340.505251	6.756435e-01	72	37	503341.666725	1
113	8	49	90	kitchen	sun_ahdycvpopffkzzsu.tif	503342.442657	503342.701247	503343.383080	7.423737e-01	80	none	NaN	NaN
113	8	50	107	kitchen	sun_axyyrmzcupyhlivc.tif	503344.152681	503344.411272	503345.092956	6.839848e-01	97	none	NaN	NaN
113	8	51	109	kitchen	sun_aypmqwcualkenuoe.tif	503345.862707	503346.121297	503346.802991	7.757389e-01	99	none	NaN	NaN
113	8	52	75	kitchen	sun_acgtpgfybqjmzeyw.tif	503347.572735	503347.831325	503348.513076	7.173499e-01	65	none	NaN	NaN
113	8	53	76	kitchen	sun_acwjdupvyjsugpay.tif	503349.282767	503349.541352	503350.223139	6.756435e-01	66	none	NaN	NaN
113	8	54	66	kitchen	sun_aapllqyqlykszopd.tif	503350.992790	503351.251377	503351.933142	6.506197e-01	56	none	NaN	NaN
113	8	55	107	kitchen	sun_axyyrmzcupyhlivc.tif	503352.702822	503352.961406	503353.643166	7.006674e-01	97	37	503354.682723	1
113	8	56	64	kitchen	sun_aadbddgrdsjugojn.tif	503355.455544	503355.714139	503356.395792	8.257865e-01	54	37	503358.290877	1
113	8	57	101	kitchen	sun_aqeaevwwwjoqhzvl.tif	503359.067460	503359.326051	503360.007889	6.923261e-01	91	none	NaN	NaN
113	8	58	79	kitchen	sun_admlmbcdswaszruo.tif	503360.777485	503361.036074	503361.717818	7.256912e-01	69	none	NaN	NaN
113	8	59	61	kitchen	labelme_brsyyvweiuaazfr.tif	503362.487512	503362.746100	503363.427880	7.590563e-01	51	none	NaN	NaN
113	8	60	92	kitchen	sun_ahpczsiumwwocjkv.tif	503364.197540	503364.456128	503365.137802	7.590563e-01	82	none	NaN	NaN
113	8	61	63	kitchen	labelme_rykdqxenmhulbdn.tif	503365.907571	503366.166158	503366.847842	7.340325e-01	53	none	NaN	NaN
113	8	62	93	kitchen	sun_ahspylgoovwmwvgk.tif	503367.617609	503367.876187	503368.557891	7.256912e-01	83	none	NaN	NaN
113	8	63	106	kitchen	sun_awcpdzzznmweyyhv.tif	503369.327626	503369.586214	503370.268055	6.923261e-01	96	none	NaN	NaN
113	8	64	83	kitchen	sun_aeqdocilnnpuvuhx.tif	503371.037654	503371.296240	503371.977908	6.839848e-01	73	none	NaN	NaN
113	8	65	70	kitchen	sun_abdxkyyxwfskuaqb.tif	503372.739331	503372.997925	503373.679700	7.006674e-01	60	none	NaN	NaN
113	8	66	84	kitchen	sun_aexklacwqwezaorf.tif	503374.449364	503374.707957	503375.389656	7.757389e-01	74	none	NaN	NaN
113	8	67	78	kitchen	sun_adgqasybjyktddhj.tif	503376.159392	503376.417978	503377.099789	7.924214e-01	68	none	NaN	NaN
113	8	68	77	kitchen	sun_acxkpeoqbwcxfvip.tif	503377.869420	503378.128008	503378.809807	7.840801e-01	67	none	NaN	NaN
113	8	69	74	kitchen	sun_acfmftudsenhrfhy.tif	503379.579445	503379.838035	503380.519805	8.091040e-01	64	none	NaN	NaN
113	8	70	94	kitchen	sun_ahywdevtimnqcsln.tif	503381.289473	503381.548062	503382.229922	7.090086e-01	84	39	503383.802838	1
113	8	71	95	kitchen	sun_aixorpehvfykdynp.tif	503384.576062	503384.834655	503385.516524	6.673022e-01	85	37	503386.834524	0
113	8	72	73	kitchen	sun_abrcnpqqhmjwekyf.tif	503387.612406	503387.870970	503388.552750	8.007627e-01	63	37	503389.770849	1
113	8	73	88	kitchen	sun_agubuxuukhzyzpdp.tif	503390.548642	503390.807239	503391.488985	8.174452e-01	78	none	NaN	NaN
113	8	74	98	kitchen	sun_akchetnepxlcxhsu.tif	503392.258673	503392.517261	503393.199030	8.007627e-01	88	none	NaN	NaN
113	8	75	80	kitchen	sun_aegoxogugdkwpmpj.tif	503393.968702	503394.227292	503394.909152	6.673022e-01	70	39	503396.282775	1
113	8	76	65	kitchen	sun_aamedkxepzlwuxes.tif	503397.055090	503397.313680	503397.995354	7.673976e-01	55	none	NaN	NaN
113	8	77	103	kitchen	sun_aunzlwrbjumxhwdj.tif	503398.765122	503399.023708	503399.705476	7.423737e-01	93	none	NaN	NaN
113	8	78	86	kitchen	sun_aggjlwcdjsjcaemh.tif	503400.475152	503400.733734	503401.415476	8.091040e-01	76	none	NaN	NaN
113	8	79	71	kitchen	sun_abftihopvusyfakt.tif	503402.185175	503402.443765	503403.125577	7.423737e-01	61	none	NaN	NaN
113	8	80	81	kitchen	sun_aehawpgmrlhlvcow.tif	503403.895204	503404.153792	503404.835465	8.341278e-01	71	none	NaN	NaN
113	8	81	96	kitchen	sun_ajcbwwvdlsvjyzje.tif	503405.605228	503405.863826	503406.545530	6.589610e-01	86	none	NaN	NaN
113	8	82	102	kitchen	sun_auaiucuqpdausiva.tif	503407.306921	503407.565506	503408.247203	6.923261e-01	92	none	NaN	NaN
113	8	83	62	kitchen	labelme_kxvouciolcpqplr.tif	503409.016946	503409.275536	503409.957293	7.340325e-01	52	none	NaN	NaN
113	8	84	108	kitchen	sun_aymvwlarqodbwuoc.tif	503410.726973	503410.985558	503411.667407	6.589610e-01	98	none	NaN	NaN
113	8	85	72	kitchen	sun_abpwyqmlzafvklqo.tif	503412.436996	503412.695590	503413.377379	8.174452e-01	62	none	NaN	NaN
113	8	86	87	kitchen	sun_agorklincwxrdtga.tif	503414.147025	503414.405623	503415.087449	7.340325e-01	77	none	NaN	NaN
113	8	87	90	kitchen	sun_ahdycvpopffkzzsu.tif	503415.857054	503416.115645	503416.797346	7.924214e-01	80	none	NaN	NaN
113	8	88	82	kitchen	sun_aenotlpyftoioydp.tif	503417.567085	503417.825672	503418.507416	6.839848e-01	72	none	NaN	NaN
113	8	89	100	kitchen	sun_amjjdeyrggfqgmom.tif	503419.277109	503419.535701	503420.217551	7.173499e-01	90	39	503422.474825	1
113	8	90	67	kitchen	sun_aarfiyshqohlwkmo.tif	503423.247709	503423.506302	503424.188134	7.090086e-01	57	none	NaN	NaN
113	8	91	104	kitchen	sun_auticobqsbwgoppi.tif	503424.957736	503425.216330	503425.898196	8.091040e-01	94	none	NaN	NaN
113	8	92	110	kitchen	sun_azmutvzbxypaceni.tif	503426.667760	503426.926350	503427.608119	7.673976e-01	100	none	NaN	NaN
113	8	93	105	kitchen	sun_avszsnwsbuqfgzbn.tif	503428.377794	503428.636382	503429.318253	8.174452e-01	95	none	NaN	NaN
113	8	94	97	kitchen	sun_ajkqhtgcbgpcwrwn.tif	503430.087822	503430.346412	503431.028138	8.341278e-01	87	none	NaN	NaN
113	8	95	85	kitchen	sun_afuyedyxivkhecmu.tif	503431.797848	503432.056435	503432.738118	8.341278e-01	75	none	NaN	NaN
113	8	96	89	kitchen	sun_agzzivivdpnawacl.tif	503433.507875	503433.766464	503434.448234	7.924214e-01	79	none	NaN	NaN
113	8	97	91	kitchen	sun_ahljzhgcdpomplvg.tif	503435.217905	503435.476494	503436.158265	6.673022e-01	81	none	NaN	NaN
113	8	98	99	kitchen	sun_akcjzhbbjlbogpdi.tif	503436.927932	503437.186519	503437.868214	6.506197e-01	89	none	NaN	NaN
113	8	99	68	kitchen	sun_aaxxjlsuzvqlgylf.tif	503438.637958	503438.896549	503439.578286	6.756435e-01	58	none	NaN	NaN
113	8	100	69	kitchen	sun_abdenxonkemggwsq.tif	503440.347987	503440.606571	503441.288419	6.506197e-01	59	none	NaN	NaN
113	9	1	11	bathroom	labelme_sfxiulhjbhlyiyt.tif	503462.653416	503462.912009	503463.560405	7.757389e-01	1	none	NaN	NaN
113	9	2	24	bathroom	sun_agrwbmhcpmfuwmsg.tif	503464.330084	503464.588670	503465.237251	8.508104e-01	14	none	NaN	NaN
113	9	3	60	bathroom	sun_azqyogdvyhahyram.tif	503466.006742	503466.265330	503466.913724	7.006674e-01	50	none	NaN	NaN
113	9	4	19	bathroom	sun_aclfzgynxzxlbepz.tif	503467.683403	503467.941996	503468.590396	7.924214e-01	9	none	NaN	NaN
113	9	5	14	bathroom	sun_abapwbhyhkfixyex.tif	503469.360062	503469.618650	503470.267135	8.174452e-01	4	none	NaN	NaN
113	9	6	15	bathroom	sun_abjtwfukuwddzted.tif	503471.036722	503471.295316	503471.943602	6.923261e-01	5	39	503473.266719	1
113	9	7	21	bathroom	sun_aggnnqpdorgxpvce.tif	503474.039697	503474.298290	503474.946726	7.507150e-01	11	none	NaN	NaN
113	9	8	38	bathroom	sun_anhioqovhscjqqwb.tif	503475.716361	503475.974953	503476.623458	6.506197e-01	28	none	NaN	NaN
113	9	9	44	bathroom	sun_apkruvsevgegsdwp.tif	503477.393023	503477.651612	503478.300061	6.589610e-01	34	none	NaN	NaN
113	9	10	56	bathroom	sun_awnqiikzaispgmwo.tif	503479.069682	503479.328272	503479.976634	6.589610e-01	46	none	NaN	NaN
113	9	11	16	bathroom	sun_acduarbnmmoglmiv.tif	503480.746340	503481.004935	503481.653324	8.257865e-01	6	none	NaN	NaN
113	9	12	45	bathroom	sun_apkxzenqapsujocq.tif	503482.423002	503482.681592	503483.329901	8.007627e-01	35	none	NaN	NaN
113	9	13	18	bathroom	sun_acgyywnybuveqsro.tif	503484.099669	503484.358258	503485.006698	8.424691e-01	8	none	NaN	NaN
113	9	14	20	bathroom	sun_afcoljnjfoxjtgja.tif	503485.776326	503486.034936	503486.683374	7.757389e-01	10	39	503492.858800	0
113	9	15	49	bathroom	sun_asfwthctfqerjvxr.tif	503493.634109	503493.892706	503494.541049	8.091040e-01	39	none	NaN	NaN
113	9	16	31	bathroom	sun_akiytfaagpdsphgz.tif	503495.310773	503495.569362	503496.217809	7.590563e-01	21	none	NaN	NaN
113	9	17	17	bathroom	sun_acegryoqftbzowsg.tif	503496.987436	503497.246025	503497.894424	7.423737e-01	7	none	NaN	NaN
113	9	18	54	bathroom	sun_auzqhkafidnkrwmo.tif	503498.664098	503498.922682	503499.571192	8.508104e-01	44	none	NaN	NaN
113	9	19	50	bathroom	sun_aspsyogrekjtfozg.tif	503500.340754	503500.599351	503501.247703	8.174452e-01	40	none	NaN	NaN
113	9	20	34	bathroom	sun_alkosphxlxwjwgjd.tif	503502.017417	503502.276010	503502.924367	7.340325e-01	24	37	503503.986791	1
113	9	21	53	bathroom	sun_ausgutylgojavyoq.tif	503504.761799	503505.020394	503505.668786	6.839848e-01	43	none	NaN	NaN
113	9	22	13	bathroom	sun_aavhrsfjbserjtht.tif	503506.438468	503506.697051	503507.345376	6.673022e-01	3	none	NaN	NaN
113	9	23	52	bathroom	sun_aunuadmjocsddsrl.tif	503508.115127	503508.373712	503509.022121	6.506197e-01	42	none	NaN	NaN
113	9	24	12	bathroom	sun_aapitsgbtktqubfy.tif	503509.791788	503510.050378	503510.698807	7.590563e-01	2	none	NaN	NaN
113	9	25	39	bathroom	sun_anryaplzeujmzfkd.tif	503511.468449	503511.727040	503512.375506	7.340325e-01	29	none	NaN	NaN
113	9	26	29	bathroom	sun_ahqjwnzgolcaoidx.tif	503513.145109	503513.403696	503514.052005	7.090086e-01	19	none	NaN	NaN
113	9	27	26	bathroom	sun_ahaulkltgpkeeemi.tif	503514.821773	503515.080357	503515.728704	6.673022e-01	16	37	503517.690540	1
113	9	28	51	bathroom	sun_atstyziqcmkahyxk.tif	503518.467048	503518.725635	503519.373932	7.090086e-01	41	none	NaN	NaN
113	9	29	41	bathroom	sun_aoybiabnpadelefl.tif	503520.143713	503520.402298	503521.050699	7.840801e-01	31	none	NaN	NaN
113	9	30	28	bathroom	sun_ahijqszoswveeyji.tif	503521.820370	503522.078959	503522.727500	7.423737e-01	18	none	NaN	NaN
113	9	31	57	bathroom	sun_axldvoqbuvuggfmq.tif	503523.497031	503523.755620	503524.403952	7.924214e-01	47	none	NaN	NaN
113	9	32	32	bathroom	sun_aleqenyvunhactkl.tif	503525.173694	503525.432286	503526.080660	6.923261e-01	22	39	503527.730557	1
113	9	33	25	bathroom	sun_agyqfjcfkdcydepw.tif	503528.501990	503528.760581	503529.408931	8.007627e-01	15	none	NaN	NaN
113	9	34	30	bathroom	sun_ajlawzvmubibwbpy.tif	503530.178646	503530.437239	503531.085555	8.257865e-01	20	none	NaN	NaN
113	9	35	58	bathroom	sun_axxbkopsgyouuebh.tif	503531.855312	503532.113904	503532.762274	7.507150e-01	48	none	NaN	NaN
113	9	36	48	bathroom	sun_aqrpegblszgcoujh.tif	503533.531975	503533.790563	503534.439060	7.673976e-01	38	none	NaN	NaN
113	9	37	36	bathroom	sun_ambriybtogmepttm.tif	503535.208632	503535.467224	503536.115547	8.257865e-01	26	none	NaN	NaN
113	9	38	33	bathroom	sun_aljolscmmzydegqp.tif	503536.885297	503537.143884	503537.792288	7.673976e-01	23	none	NaN	NaN
113	9	39	42	bathroom	sun_apeeialkgkuxddgh.tif	503538.561957	503538.820545	503539.469035	7.840801e-01	32	none	NaN	NaN
113	9	40	55	bathroom	sun_avhrdrntsqrjzccq.tif	503540.238615	503540.497205	503541.145606	6.756435e-01	45	37	503542.858736	1
113	9	41	46	bathroom	sun_apmqjbnwghzuhhzh.tif	503543.633646	503543.892241	503544.540728	6.839848e-01	36	none	NaN	NaN
113	9	42	22	bathroom	sun_agguqiubmwhqqunb.tif	503545.310311	503545.568897	503546.217313	6.589610e-01	12	none	NaN	NaN
113	9	43	27	bathroom	sun_ahcvzmoyaycdoftf.tif	503546.986973	503547.245561	503547.894071	6.756435e-01	17	none	NaN	NaN
113	9	44	47	bathroom	sun_apynckhmoftszqoq.tif	503548.663629	503548.922224	503549.570553	6.839848e-01	37	none	NaN	NaN
113	9	45	59	bathroom	sun_axyrejkiiaqiurjk.tif	503550.340294	503550.598888	503551.247353	7.423737e-01	49	none	NaN	NaN
113	9	46	35	bathroom	sun_alotolagknyrgtsk.tif	503552.016954	503552.275542	503552.924051	6.673022e-01	25	37	503554.498799	1
113	9	47	40	bathroom	sun_aofnryafpsjimzsb.tif	503555.270177	503555.528770	503556.177091	7.090086e-01	30	37	503558.226555	0
113	9	48	23	bathroom	sun_aghyqhbptboemmoq.tif	503558.998872	503559.257460	503559.905803	7.840801e-01	13	none	NaN	NaN
113	9	49	43	bathroom	sun_apjevzvycyhuqghb.tif	503560.675536	503560.934123	503561.582529	6.673022e-01	33	none	NaN	NaN
113	9	50	37	bathroom	sun_amzlamotzwfkwjco.tif	503562.352199	503562.610787	503563.259231	8.091040e-01	27	none	NaN	NaN
