subject	block	trial	texture	category	image	trialOnset	itiOnset	trialEnd	iti	EEGtrigger	responseKey	responseTime	accuracy
126	1	1	13	bathroom	sun_aavhrsfjbserjtht.tif	44918.781417	44919.040010	44919.780154	7.506232e-01	3	none	NaN	NaN
126	1	2	49	bathroom	sun_asfwthctfqerjvxr.tif	44920.549834	44920.808424	44921.548566	8.423661e-01	39	none	NaN	NaN
126	1	3	25	bathroom	sun_agyqfjcfkdcydepw.tif	44922.318256	44922.576846	44923.316874	6.588804e-01	15	39	44924.795231	1
126	1	4	38	bathroom	sun_anhioqovhscjqqwb.tif	44925.571477	44925.830066	44926.570066	7.839843e-01	28	none	NaN	NaN
126	1	5	37	bathroom	sun_amzlamotzwfkwjco.tif	44927.331553	44927.590143	44928.330115	7.172622e-01	27	none	NaN	NaN
126	1	6	16	bathroom	sun_acduarbnmmoglmiv.tif	44929.091631	44929.350225	44930.090687	6.922414e-01	6	none	NaN	NaN
126	1	7	41	bathroom	sun_aoybiabnpadelefl.tif	44930.860050	44931.118647	44931.858755	6.922414e-01	31	39	44932.971335	1
126	1	8	55	bathroom	sun_avhrdrntsqrjzccq.tif	44933.746244	44934.004836	44934.744915	6.922414e-01	45	none	NaN	NaN
126	1	9	60	bathroom	sun_azqyogdvyhahyram.tif	44935.514663	44935.773250	44936.513363	7.422830e-01	50	37	44938.563191	1
126	1	10	29	bathroom	sun_ahqjwnzgolcaoidx.tif	44939.335116	44939.593703	44940.333728	7.339427e-01	19	none	NaN	NaN
126	1	11	15	bathroom	sun_abjtwfukuwddzted.tif	44941.095189	44941.353788	44942.093844	8.340258e-01	5	39	44943.779339	0
126	1	12	39	bathroom	sun_anryaplzeujmzfkd.tif	44944.556952	44944.815541	44945.555691	6.755609e-01	29	none	NaN	NaN
126	1	13	17	bathroom	sun_acegryoqftbzowsg.tif	44946.325373	44946.583961	44947.324074	8.090050e-01	7	none	NaN	NaN
126	1	14	30	bathroom	sun_ajlawzvmubibwbpy.tif	44948.093792	44948.352382	44949.092498	8.173453e-01	20	none	NaN	NaN
126	1	15	23	bathroom	sun_aghyqhbptboemmoq.tif	44949.862212	44950.120799	44950.860872	7.839843e-01	13	none	NaN	NaN
126	1	16	53	bathroom	sun_ausgutylgojavyoq.tif	44951.630629	44951.889218	44952.629178	7.506232e-01	43	none	NaN	NaN
126	1	17	59	bathroom	sun_axyrejkiiaqiurjk.tif	44953.390706	44953.649293	44954.389251	7.422830e-01	49	none	NaN	NaN
126	1	18	58	bathroom	sun_axxbkopsgyouuebh.tif	44955.150784	44955.409369	44956.149542	7.339427e-01	48	none	NaN	NaN
126	1	19	14	bathroom	sun_abapwbhyhkfixyex.tif	44956.919205	44957.177790	44957.917868	7.089219e-01	4	none	NaN	NaN
126	1	20	33	bathroom	sun_aljolscmmzydegqp.tif	44958.687619	44958.946210	44959.686230	6.922414e-01	23	none	NaN	NaN
126	1	21	46	bathroom	sun_apmqjbnwghzuhhzh.tif	44960.447697	44960.706282	44961.446329	7.339427e-01	36	39	44963.571370	1
126	1	22	18	bathroom	sun_acgyywnybuveqsro.tif	44964.343220	44964.601811	44965.341940	6.755609e-01	8	none	NaN	NaN
126	1	23	19	bathroom	sun_aclfzgynxzxlbepz.tif	44966.111641	44966.370231	44967.110219	7.756440e-01	9	none	NaN	NaN
126	1	24	11	bathroom	labelme_sfxiulhjbhlyiyt.tif	44967.871722	44968.130311	44968.870334	6.672206e-01	1	39	44970.803174	1
126	1	25	27	bathroom	sun_ahcvzmoyaycdoftf.tif	44971.575388	44971.833973	44972.574044	8.256855e-01	17	none	NaN	NaN
126	1	26	21	bathroom	sun_aggnnqpdorgxpvce.tif	44973.343808	44973.602398	44974.342464	7.589635e-01	11	none	NaN	NaN
126	1	27	42	bathroom	sun_apeeialkgkuxddgh.tif	44975.112225	44975.370819	44976.110981	7.589635e-01	32	none	NaN	NaN
126	1	28	56	bathroom	sun_awnqiikzaispgmwo.tif	44976.880643	44977.139249	44977.879354	8.173453e-01	46	none	NaN	NaN
126	1	29	44	bathroom	sun_apkruvsevgegsdwp.tif	44978.649062	44978.907649	44979.647693	7.422830e-01	34	none	NaN	NaN
126	1	30	20	bathroom	sun_afcoljnjfoxjtgja.tif	44980.417482	44980.676072	44981.416145	7.172622e-01	10	none	NaN	NaN
126	1	31	28	bathroom	sun_ahijqszoswveeyji.tif	44982.177555	44982.436145	44983.176306	8.423661e-01	18	none	NaN	NaN
126	1	32	26	bathroom	sun_ahaulkltgpkeeemi.tif	44983.945974	44984.204568	44984.944628	7.673037e-01	16	none	NaN	NaN
126	1	33	22	bathroom	sun_agguqiubmwhqqunb.tif	44985.714397	44985.972982	44986.713085	7.005817e-01	12	none	NaN	NaN
126	1	34	47	bathroom	sun_apynckhmoftszqoq.tif	44987.482816	44987.741401	44988.481467	7.589635e-01	37	none	NaN	NaN
126	1	35	45	bathroom	sun_apkxzenqapsujocq.tif	44989.251232	44989.509822	44990.249929	8.173453e-01	35	none	NaN	NaN
126	1	36	34	bathroom	sun_alkosphxlxwjwgjd.tif	44991.019653	44991.278239	44992.018404	8.340258e-01	24	none	NaN	NaN
126	1	37	12	bathroom	sun_aapitsgbtktqubfy.tif	44992.788069	44993.046659	44993.786632	8.090050e-01	2	none	NaN	NaN
126	1	38	52	bathroom	sun_aunuadmjocsddsrl.tif	44994.548145	44994.806740	44995.546859	7.089219e-01	42	none	NaN	NaN
126	1	39	50	bathroom	sun_aspsyogrekjtfozg.tif	44996.316565	44996.575157	44997.315235	7.923245e-01	40	none	NaN	NaN
126	1	40	54	bathroom	sun_auzqhkafidnkrwmo.tif	44998.084986	44998.343573	44999.083741	6.505401e-01	44	none	NaN	NaN
126	1	41	31	bathroom	sun_akiytfaagpdsphgz.tif	44999.853400	45000.111992	45000.851982	6.588804e-01	21	37	45001.523341	0
126	1	42	48	bathroom	sun_aqrpegblszgcoujh.tif	45002.297495	45002.556080	45003.296084	8.090050e-01	38	none	NaN	NaN
126	1	43	35	bathroom	sun_alotolagknyrgtsk.tif	45004.057568	45004.316157	45005.056340	8.006648e-01	25	none	NaN	NaN
126	1	44	24	bathroom	sun_agrwbmhcpmfuwmsg.tif	45005.825986	45006.084574	45006.824742	7.256024e-01	14	none	NaN	NaN
126	1	45	40	bathroom	sun_aofnryafpsjimzsb.tif	45007.594407	45007.852996	45008.592958	7.839843e-01	30	none	NaN	NaN
126	1	46	36	bathroom	sun_ambriybtogmepttm.tif	45009.354485	45009.613072	45010.353207	7.756440e-01	26	none	NaN	NaN
126	1	47	57	bathroom	sun_axldvoqbuvuggfmq.tif	45011.122904	45011.381487	45012.121466	8.256855e-01	47	none	NaN	NaN
126	1	48	43	bathroom	sun_apjevzvycyhuqghb.tif	45012.882977	45013.141566	45013.881551	6.505401e-01	33	none	NaN	NaN
126	1	49	32	bathroom	sun_aleqenyvunhactkl.tif	45014.643052	45014.901645	45015.641745	7.005817e-01	22	none	NaN	NaN
126	1	50	51	bathroom	sun_atstyziqcmkahyxk.tif	45016.411474	45016.670066	45017.410224	8.006648e-01	41	none	NaN	NaN
126	1	51	59	bathroom	sun_axyrejkiiaqiurjk.tif	45018.179905	45018.438481	45019.178467	7.005817e-01	49	none	NaN	NaN
126	1	52	11	bathroom	labelme_sfxiulhjbhlyiyt.tif	45019.939970	45020.198568	45020.938711	7.339427e-01	1	none	NaN	NaN
126	1	53	25	bathroom	sun_agyqfjcfkdcydepw.tif	45021.708390	45021.966980	45022.707056	7.506232e-01	15	none	NaN	NaN
126	1	54	16	bathroom	sun_acduarbnmmoglmiv.tif	45023.476807	45023.735395	45024.475446	7.172622e-01	6	none	NaN	NaN
126	1	55	21	bathroom	sun_aggnnqpdorgxpvce.tif	45025.236889	45025.495476	45026.235591	7.589635e-01	11	none	NaN	NaN
126	1	56	51	bathroom	sun_atstyziqcmkahyxk.tif	45027.005301	45027.263894	45028.003880	7.923245e-01	41	none	NaN	NaN
126	1	57	32	bathroom	sun_aleqenyvunhactkl.tif	45028.765382	45029.023971	45029.764095	7.923245e-01	22	none	NaN	NaN
126	1	58	33	bathroom	sun_aljolscmmzydegqp.tif	45030.533800	45030.792384	45031.532556	7.673037e-01	23	none	NaN	NaN
126	1	59	18	bathroom	sun_acgyywnybuveqsro.tif	45032.302215	45032.560805	45033.300947	7.089219e-01	8	none	NaN	NaN
126	1	60	36	bathroom	sun_ambriybtogmepttm.tif	45034.070632	45034.329231	45035.069282	7.839843e-01	26	none	NaN	NaN
126	1	61	13	bathroom	sun_aavhrsfjbserjtht.tif	45035.839055	45036.097647	45036.837615	8.507063e-01	3	none	NaN	NaN
126	1	62	56	bathroom	sun_awnqiikzaispgmwo.tif	45037.607473	45037.866061	45038.606122	7.756440e-01	46	37	45040.427254	0
126	1	63	14	bathroom	sun_abapwbhyhkfixyex.tif	45041.202699	45041.461291	45042.201424	6.588804e-01	4	none	NaN	NaN
126	1	64	45	bathroom	sun_apkxzenqapsujocq.tif	45042.971117	45043.229710	45043.969846	8.090050e-01	35	none	NaN	NaN
126	1	65	38	bathroom	sun_anhioqovhscjqqwb.tif	45044.739534	45044.998132	45045.738151	8.256855e-01	28	37	45047.971224	1
126	1	66	44	bathroom	sun_apkruvsevgegsdwp.tif	45048.743504	45049.002096	45049.742191	8.006648e-01	34	37	45050.651192	1
126	1	67	35	bathroom	sun_alotolagknyrgtsk.tif	45051.429493	45051.688085	45052.428201	6.672206e-01	25	none	NaN	NaN
126	1	68	55	bathroom	sun_avhrdrntsqrjzccq.tif	45053.197916	45053.456509	45054.196469	6.755609e-01	45	39	45055.595316	1
126	1	69	22	bathroom	sun_agguqiubmwhqqunb.tif	45056.367726	45056.626311	45057.366380	6.839012e-01	12	none	NaN	NaN
126	1	70	24	bathroom	sun_agrwbmhcpmfuwmsg.tif	45058.136137	45058.394735	45059.134860	7.422830e-01	14	none	NaN	NaN
126	1	71	47	bathroom	sun_apynckhmoftszqoq.tif	45059.904560	45060.163146	45060.903198	8.340258e-01	37	none	NaN	NaN
126	1	72	53	bathroom	sun_ausgutylgojavyoq.tif	45061.672982	45061.931567	45062.671615	7.589635e-01	43	none	NaN	NaN
126	1	73	15	bathroom	sun_abjtwfukuwddzted.tif	45063.441395	45063.699984	45064.440111	8.006648e-01	5	none	NaN	NaN
126	1	74	28	bathroom	sun_ahijqszoswveeyji.tif	45065.209814	45065.468405	45066.208515	7.256024e-01	18	none	NaN	NaN
126	1	75	26	bathroom	sun_ahaulkltgpkeeemi.tif	45066.978233	45067.236826	45067.976970	8.173453e-01	16	37	45069.171186	1
126	1	76	58	bathroom	sun_axxbkopsgyouuebh.tif	45069.947843	45070.206435	45070.946473	6.839012e-01	48	none	NaN	NaN
126	1	77	17	bathroom	sun_acegryoqftbzowsg.tif	45071.716263	45071.974849	45072.714998	6.839012e-01	7	39	45073.883322	0
126	1	78	54	bathroom	sun_auzqhkafidnkrwmo.tif	45074.660839	45074.919434	45075.659555	8.340258e-01	44	none	NaN	NaN
126	1	79	30	bathroom	sun_ajlawzvmubibwbpy.tif	45076.429265	45076.687856	45077.427853	7.172622e-01	20	none	NaN	NaN
126	1	80	19	bathroom	sun_aclfzgynxzxlbepz.tif	45078.189360	45078.447930	45079.187902	8.256855e-01	9	none	NaN	NaN
126	1	81	60	bathroom	sun_azqyogdvyhahyram.tif	45079.949420	45080.208009	45080.948083	7.256024e-01	50	none	NaN	NaN
126	1	82	50	bathroom	sun_aspsyogrekjtfozg.tif	45081.717840	45081.976446	45082.716560	7.756440e-01	40	none	NaN	NaN
126	1	83	42	bathroom	sun_apeeialkgkuxddgh.tif	45083.486257	45083.744845	45084.484859	7.005817e-01	32	none	NaN	NaN
126	1	84	49	bathroom	sun_asfwthctfqerjvxr.tif	45085.246335	45085.504930	45086.244938	7.673037e-01	39	none	NaN	NaN
126	1	85	27	bathroom	sun_ahcvzmoyaycdoftf.tif	45087.014756	45087.273338	45088.013470	7.005817e-01	17	none	NaN	NaN
126	1	86	12	bathroom	sun_aapitsgbtktqubfy.tif	45088.783169	45089.041759	45089.781839	7.256024e-01	2	none	NaN	NaN
126	1	87	23	bathroom	sun_aghyqhbptboemmoq.tif	45090.551590	45090.810175	45091.550307	6.505401e-01	13	39	45092.915211	1
126	1	88	20	bathroom	sun_afcoljnjfoxjtgja.tif	45093.688030	45093.946616	45094.686655	8.423661e-01	10	none	NaN	NaN
126	1	89	40	bathroom	sun_aofnryafpsjimzsb.tif	45095.456446	45095.715036	45096.455183	6.588804e-01	30	none	NaN	NaN
126	1	90	39	bathroom	sun_anryaplzeujmzfkd.tif	45097.224867	45097.483450	45098.223542	6.839012e-01	29	none	NaN	NaN
126	1	91	43	bathroom	sun_apjevzvycyhuqghb.tif	45098.993318	45099.251868	45099.991865	8.256855e-01	33	none	NaN	NaN
126	1	92	34	bathroom	sun_alkosphxlxwjwgjd.tif	45100.753361	45101.011949	45101.752087	6.672206e-01	24	none	NaN	NaN
126	1	93	41	bathroom	sun_aoybiabnpadelefl.tif	45102.521781	45102.780368	45103.520529	8.423661e-01	31	none	NaN	NaN
126	1	94	46	bathroom	sun_apmqjbnwghzuhhzh.tif	45104.290201	45104.548782	45105.288748	6.755609e-01	36	none	NaN	NaN
126	1	95	57	bathroom	sun_axldvoqbuvuggfmq.tif	45106.050279	45106.308865	45107.049002	8.507063e-01	47	none	NaN	NaN
126	1	96	31	bathroom	sun_akiytfaagpdsphgz.tif	45107.818694	45108.077283	45108.817374	7.506232e-01	21	39	45109.835420	0
126	1	97	37	bathroom	sun_amzlamotzwfkwjco.tif	45110.613131	45110.871717	45111.611869	7.089219e-01	27	none	NaN	NaN
126	1	98	29	bathroom	sun_ahqjwnzgolcaoidx.tif	45112.381549	45112.640136	45113.380097	7.673037e-01	19	none	NaN	NaN
126	1	99	52	bathroom	sun_aunuadmjocsddsrl.tif	45114.141622	45114.400212	45115.140193	7.923245e-01	42	none	NaN	NaN
126	1	100	48	bathroom	sun_aqrpegblszgcoujh.tif	45115.901700	45116.160292	45116.900411	6.672206e-01	38	none	NaN	NaN
126	2	1	62	kitchen	labelme_kxvouciolcpqplr.tif	45210.261845	45210.520432	45211.210501	8.256855e-01	52	none	NaN	NaN
126	2	2	82	kitchen	sun_aenotlpyftoioydp.tif	45211.980214	45212.238802	45212.928776	7.005817e-01	72	none	NaN	NaN
126	2	3	80	kitchen	sun_aegoxogugdkwpmpj.tif	45213.690241	45213.948825	45214.638806	8.256855e-01	70	none	NaN	NaN
126	2	4	84	kitchen	sun_aexklacwqwezaorf.tif	45215.400265	45215.658852	45216.348969	7.506232e-01	74	none	NaN	NaN
126	2	5	88	kitchen	sun_agubuxuukhzyzpdp.tif	45217.118634	45217.377226	45218.067241	7.422830e-01	78	none	NaN	NaN
126	2	6	85	kitchen	sun_afuyedyxivkhecmu.tif	45218.837006	45219.095594	45219.785516	7.923245e-01	75	37	45221.523333	1
126	2	7	73	kitchen	sun_abrcnpqqhmjwekyf.tif	45222.298767	45222.557355	45223.247306	7.589635e-01	63	none	NaN	NaN
126	2	8	99	kitchen	sun_akcjzhbbjlbogpdi.tif	45224.008795	45224.267379	45224.957378	7.256024e-01	89	none	NaN	NaN
126	2	9	75	kitchen	sun_acgtpgfybqjmzeyw.tif	45225.727164	45225.985754	45226.675865	7.589635e-01	65	none	NaN	NaN
126	2	10	92	kitchen	sun_ahpczsiumwwocjkv.tif	45227.445532	45227.704122	45228.394064	7.589635e-01	82	none	NaN	NaN
126	2	11	67	kitchen	sun_aarfiyshqohlwkmo.tif	45229.155558	45229.414145	45230.104260	7.506232e-01	57	37	45231.083027	1
126	2	12	89	kitchen	sun_agzzivivdpnawacl.tif	45231.858234	45232.116826	45232.806800	7.089219e-01	79	none	NaN	NaN
126	2	13	87	kitchen	sun_agorklincwxrdtga.tif	45233.568261	45233.826852	45234.516918	8.340258e-01	77	none	NaN	NaN
126	2	14	70	kitchen	sun_abdxkyyxwfskuaqb.tif	45235.286629	45235.545221	45236.235279	7.005817e-01	60	none	NaN	NaN
126	2	15	69	kitchen	sun_abdenxonkemggwsq.tif	45237.005003	45237.263593	45237.954802	6.505401e-01	59	none	NaN	NaN
126	2	16	66	kitchen	sun_aapllqyqlykszopd.tif	45238.723366	45238.981962	45239.671998	7.339427e-01	56	37	45241.011250	0
126	2	17	104	kitchen	sun_auticobqsbwgoppi.tif	45241.784736	45242.043327	45242.733368	8.006648e-01	94	none	NaN	NaN
126	2	18	90	kitchen	sun_ahdycvpopffkzzsu.tif	45243.503104	45243.761697	45244.451724	6.839012e-01	80	none	NaN	NaN
126	2	19	96	kitchen	sun_ajcbwwvdlsvjyzje.tif	45245.221471	45245.480065	45246.170040	7.005817e-01	86	none	NaN	NaN
126	2	20	65	kitchen	sun_aamedkxepzlwuxes.tif	45246.931500	45247.190093	45247.880020	7.089219e-01	55	none	NaN	NaN
126	2	21	106	kitchen	sun_awcpdzzznmweyyhv.tif	45248.641530	45248.900120	45249.590062	7.673037e-01	96	none	NaN	NaN
126	2	22	83	kitchen	sun_aeqdocilnnpuvuhx.tif	45250.351556	45250.610146	45251.300264	8.423661e-01	73	none	NaN	NaN
126	2	23	64	kitchen	sun_aadbddgrdsjugojn.tif	45252.069923	45252.328514	45253.018616	7.839843e-01	54	none	NaN	NaN
126	2	24	61	kitchen	labelme_brsyyvweiuaazfr.tif	45253.788292	45254.046883	45254.736802	7.172622e-01	51	none	NaN	NaN
126	2	25	107	kitchen	sun_axyyrmzcupyhlivc.tif	45255.498322	45255.756919	45256.446985	7.339427e-01	97	none	NaN	NaN
126	2	26	91	kitchen	sun_ahljzhgcdpomplvg.tif	45257.216688	45257.475278	45258.165242	6.588804e-01	81	none	NaN	NaN
126	2	27	94	kitchen	sun_ahywdevtimnqcsln.tif	45258.926717	45259.185307	45259.875335	7.506232e-01	84	none	NaN	NaN
126	2	28	78	kitchen	sun_adgqasybjyktddhj.tif	45260.636743	45260.895332	45261.585310	7.256024e-01	68	none	NaN	NaN
126	2	29	102	kitchen	sun_auaiucuqpdausiva.tif	45262.346776	45262.605362	45263.295467	6.922414e-01	92	none	NaN	NaN
126	2	30	95	kitchen	sun_aixorpehvfykdynp.tif	45264.065143	45264.323733	45265.013777	6.672206e-01	85	none	NaN	NaN
126	2	31	81	kitchen	sun_aehawpgmrlhlvcow.tif	45265.783513	45266.042100	45266.732124	7.005817e-01	71	39	45267.779320	1
126	2	32	74	kitchen	sun_acfmftudsenhrfhy.tif	45268.552915	45268.811509	45269.501460	8.340258e-01	64	39	45273.259119	0
126	2	33	72	kitchen	sun_abpwyqmlzafvklqo.tif	45274.033348	45274.291937	45274.982059	7.089219e-01	62	none	NaN	NaN
126	2	34	109	kitchen	sun_aypmqwcualkenuoe.tif	45275.751716	45276.010304	45276.700298	7.172622e-01	99	39	45278.283035	0
126	2	35	63	kitchen	labelme_rykdqxenmhulbdn.tif	45279.054991	45279.313578	45280.003566	7.756440e-01	53	none	NaN	NaN
126	2	36	105	kitchen	sun_avszsnwsbuqfgzbn.tif	45280.765016	45281.023607	45281.713536	7.089219e-01	95	none	NaN	NaN
126	2	37	98	kitchen	sun_akchetnepxlcxhsu.tif	45282.475047	45282.733630	45283.423553	8.090050e-01	88	none	NaN	NaN
126	2	38	86	kitchen	sun_aggjlwcdjsjcaemh.tif	45284.185072	45284.443661	45285.133663	6.672206e-01	76	none	NaN	NaN
126	2	39	68	kitchen	sun_aaxxjlsuzvqlgylf.tif	45285.903441	45286.162029	45286.851980	7.589635e-01	58	none	NaN	NaN
126	2	40	71	kitchen	sun_abftihopvusyfakt.tif	45287.613465	45287.872059	45288.562072	8.423661e-01	61	none	NaN	NaN
126	2	41	93	kitchen	sun_ahspylgoovwmwvgk.tif	45289.331838	45289.590428	45290.280370	7.673037e-01	83	39	45291.507129	1
126	2	42	100	kitchen	sun_amjjdeyrggfqgmom.tif	45292.284757	45292.543348	45293.233318	8.173453e-01	90	none	NaN	NaN
126	2	43	108	kitchen	sun_aymvwlarqodbwuoc.tif	45294.003127	45294.261718	45294.951663	6.755609e-01	98	none	NaN	NaN
126	2	44	76	kitchen	sun_acwjdupvyjsugpay.tif	45295.713159	45295.971742	45296.661863	7.839843e-01	66	none	NaN	NaN
126	2	45	97	kitchen	sun_ajkqhtgcbgpcwrwn.tif	45297.431524	45297.690117	45298.380172	7.756440e-01	87	none	NaN	NaN
126	2	46	79	kitchen	sun_admlmbcdswaszruo.tif	45299.149897	45299.408484	45300.098577	8.256855e-01	69	none	NaN	NaN
126	2	47	77	kitchen	sun_acxkpeoqbwcxfvip.tif	45300.868267	45301.126854	45301.816958	7.923245e-01	67	none	NaN	NaN
126	2	48	103	kitchen	sun_aunzlwrbjumxhwdj.tif	45302.586631	45302.845223	45303.535234	7.839843e-01	93	none	NaN	NaN
126	2	49	110	kitchen	sun_azmutvzbxypaceni.tif	45304.305004	45304.563598	45305.253699	8.006648e-01	100	none	NaN	NaN
126	2	50	101	kitchen	sun_aqeaevwwwjoqhzvl.tif	45306.023375	45306.281962	45306.972043	7.172622e-01	91	none	NaN	NaN
126	2	51	88	kitchen	sun_agubuxuukhzyzpdp.tif	45307.741739	45308.000334	45308.690447	8.173453e-01	78	none	NaN	NaN
126	2	52	92	kitchen	sun_ahpczsiumwwocjkv.tif	45309.460112	45309.718699	45310.408798	6.922414e-01	82	39	45311.483170	1
126	2	53	66	kitchen	sun_aapllqyqlykszopd.tif	45312.254544	45312.513133	45313.203102	8.090050e-01	56	none	NaN	NaN
126	2	54	102	kitchen	sun_auaiucuqpdausiva.tif	45313.972914	45314.231502	45314.921607	7.923245e-01	92	39	45316.419284	0
126	2	55	78	kitchen	sun_adgqasybjyktddhj.tif	45317.192767	45317.451361	45318.141444	7.923245e-01	68	none	NaN	NaN
126	2	56	68	kitchen	sun_aaxxjlsuzvqlgylf.tif	45318.911135	45319.169729	45319.859666	6.755609e-01	58	none	NaN	NaN
126	2	57	62	kitchen	labelme_kxvouciolcpqplr.tif	45320.621169	45320.879754	45321.569681	6.588804e-01	52	none	NaN	NaN
126	2	58	100	kitchen	sun_amjjdeyrggfqgmom.tif	45322.331192	45322.589777	45323.279858	6.922414e-01	90	none	NaN	NaN
126	2	59	74	kitchen	sun_acfmftudsenhrfhy.tif	45324.049563	45324.308150	45324.998241	7.172622e-01	64	none	NaN	NaN
126	2	60	109	kitchen	sun_aypmqwcualkenuoe.tif	45325.767934	45326.026519	45326.716437	8.423661e-01	99	none	NaN	NaN
126	2	61	105	kitchen	sun_avszsnwsbuqfgzbn.tif	45327.477956	45327.736547	45328.426637	7.589635e-01	95	none	NaN	NaN
126	2	62	67	kitchen	sun_aarfiyshqohlwkmo.tif	45329.196324	45329.454917	45330.144847	6.839012e-01	57	none	NaN	NaN
126	2	63	83	kitchen	sun_aeqdocilnnpuvuhx.tif	45330.914696	45331.173285	45331.863335	6.672206e-01	73	none	NaN	NaN
126	2	64	90	kitchen	sun_ahdycvpopffkzzsu.tif	45332.633067	45332.891653	45333.581590	6.755609e-01	80	none	NaN	NaN
126	2	65	75	kitchen	sun_acgtpgfybqjmzeyw.tif	45334.343095	45334.601681	45335.291744	7.756440e-01	65	none	NaN	NaN
126	2	66	101	kitchen	sun_aqeaevwwwjoqhzvl.tif	45336.061465	45336.320048	45337.010038	7.756440e-01	91	none	NaN	NaN
126	2	67	82	kitchen	sun_aenotlpyftoioydp.tif	45337.779831	45338.038419	45338.728504	6.839012e-01	72	37	45339.835124	0
126	2	68	97	kitchen	sun_ajkqhtgcbgpcwrwn.tif	45340.607627	45340.866216	45341.556290	7.005817e-01	87	none	NaN	NaN
126	2	69	77	kitchen	sun_acxkpeoqbwcxfvip.tif	45342.325998	45342.584588	45343.274584	7.339427e-01	67	none	NaN	NaN
126	2	70	63	kitchen	labelme_rykdqxenmhulbdn.tif	45344.044370	45344.302958	45344.992899	7.422830e-01	53	none	NaN	NaN
126	2	71	87	kitchen	sun_agorklincwxrdtga.tif	45345.754395	45346.012987	45346.703176	8.340258e-01	77	none	NaN	NaN
126	2	72	84	kitchen	sun_aexklacwqwezaorf.tif	45347.472769	45347.731358	45348.421420	7.673037e-01	74	none	NaN	NaN
126	2	73	94	kitchen	sun_ahywdevtimnqcsln.tif	45349.191136	45349.449723	45350.139752	6.922414e-01	84	39	45351.226994	0
126	2	74	65	kitchen	sun_aamedkxepzlwuxes.tif	45352.002248	45352.260841	45352.950834	8.507063e-01	55	none	NaN	NaN
126	2	75	96	kitchen	sun_ajcbwwvdlsvjyzje.tif	45353.720617	45353.979210	45354.669237	7.506232e-01	86	39	45356.507141	1
126	2	76	106	kitchen	sun_awcpdzzznmweyyhv.tif	45357.282479	45357.541075	45358.231117	8.006648e-01	96	none	NaN	NaN
126	2	77	80	kitchen	sun_aegoxogugdkwpmpj.tif	45359.000851	45359.259444	45359.949545	8.256855e-01	70	37	45360.923363	1
126	2	78	95	kitchen	sun_aixorpehvfykdynp.tif	45361.695190	45361.953780	45362.643762	7.422830e-01	85	none	NaN	NaN
126	2	79	81	kitchen	sun_aehawpgmrlhlvcow.tif	45363.405215	45363.663806	45364.353859	8.173453e-01	71	none	NaN	NaN
126	2	80	76	kitchen	sun_acwjdupvyjsugpay.tif	45365.123583	45365.382172	45366.072219	6.588804e-01	66	39	45367.035118	1
126	2	81	61	kitchen	labelme_brsyyvweiuaazfr.tif	45367.809578	45368.068167	45368.758213	8.090050e-01	51	none	NaN	NaN
126	2	82	98	kitchen	sun_akchetnepxlcxhsu.tif	45369.527946	45369.786533	45370.476518	8.006648e-01	88	none	NaN	NaN
126	2	83	91	kitchen	sun_ahljzhgcdpomplvg.tif	45371.237971	45371.496559	45372.186617	6.505401e-01	81	none	NaN	NaN
126	2	84	72	kitchen	sun_abpwyqmlzafvklqo.tif	45372.956343	45373.214929	45373.904883	6.588804e-01	62	none	NaN	NaN
126	2	85	107	kitchen	sun_axyyrmzcupyhlivc.tif	45374.674710	45374.933305	45375.623358	7.422830e-01	97	39	45376.755260	1
126	2	86	104	kitchen	sun_auticobqsbwgoppi.tif	45377.527537	45377.786130	45378.476196	6.839012e-01	94	none	NaN	NaN
126	2	87	108	kitchen	sun_aymvwlarqodbwuoc.tif	45379.245907	45379.504496	45380.194563	7.256024e-01	98	none	NaN	NaN
126	2	88	93	kitchen	sun_ahspylgoovwmwvgk.tif	45380.964277	45381.222867	45381.912921	8.256855e-01	83	none	NaN	NaN
126	2	89	86	kitchen	sun_aggjlwcdjsjcaemh.tif	45382.682645	45382.941235	45383.631197	8.173453e-01	76	none	NaN	NaN
126	2	90	103	kitchen	sun_aunzlwrbjumxhwdj.tif	45384.401015	45384.659603	45385.349704	6.505401e-01	93	none	NaN	NaN
126	2	91	73	kitchen	sun_abrcnpqqhmjwekyf.tif	45386.119378	45386.377973	45387.067955	7.339427e-01	63	none	NaN	NaN
126	2	92	89	kitchen	sun_agzzivivdpnawacl.tif	45387.829406	45388.087998	45388.777928	7.673037e-01	79	none	NaN	NaN
126	2	93	71	kitchen	sun_abftihopvusyfakt.tif	45389.539434	45389.798027	45390.488097	6.755609e-01	61	none	NaN	NaN
126	2	94	85	kitchen	sun_afuyedyxivkhecmu.tif	45391.257807	45391.516392	45392.206465	8.507063e-01	75	none	NaN	NaN
126	2	95	64	kitchen	sun_aadbddgrdsjugojn.tif	45392.976174	45393.234764	45393.924775	6.672206e-01	54	none	NaN	NaN
126	2	96	110	kitchen	sun_azmutvzbxypaceni.tif	45394.694541	45394.953134	45395.643103	8.423661e-01	100	none	NaN	NaN
126	2	97	70	kitchen	sun_abdxkyyxwfskuaqb.tif	45396.404570	45396.663159	45397.353256	8.340258e-01	60	none	NaN	NaN
126	2	98	99	kitchen	sun_akcjzhbbjlbogpdi.tif	45398.122940	45398.381530	45399.071496	7.839843e-01	89	none	NaN	NaN
126	2	99	79	kitchen	sun_admlmbcdswaszruo.tif	45399.832965	45400.091552	45400.781547	8.090050e-01	69	none	NaN	NaN
126	2	100	69	kitchen	sun_abdenxonkemggwsq.tif	45401.542993	45401.801585	45402.491505	7.256024e-01	59	none	NaN	NaN
126	3	1	27	bathroom	sun_ahcvzmoyaycdoftf.tif	45408.625010	45408.883598	45409.698788	8.256855e-01	17	none	NaN	NaN
126	3	2	21	bathroom	sun_aggnnqpdorgxpvce.tif	45410.468503	45410.727094	45411.542288	6.922414e-01	11	37	45412.963210	0
126	3	3	19	bathroom	sun_aclfzgynxzxlbepz.tif	45413.738409	45413.996997	45414.812120	8.256855e-01	9	none	NaN	NaN
126	3	4	46	bathroom	sun_apmqjbnwghzuhhzh.tif	45415.581899	45415.840491	45416.655615	7.089219e-01	36	none	NaN	NaN
126	3	5	17	bathroom	sun_acegryoqftbzowsg.tif	45417.425391	45417.683988	45418.499002	8.423661e-01	7	none	NaN	NaN
126	3	6	34	bathroom	sun_alkosphxlxwjwgjd.tif	45419.260544	45419.519134	45420.334152	7.256024e-01	24	none	NaN	NaN
126	3	7	18	bathroom	sun_acgyywnybuveqsro.tif	45421.095697	45421.354285	45422.169445	7.089219e-01	8	none	NaN	NaN
126	3	8	38	bathroom	sun_anhioqovhscjqqwb.tif	45422.939191	45423.197782	45424.012802	6.755609e-01	28	none	NaN	NaN
126	3	9	50	bathroom	sun_aspsyogrekjtfozg.tif	45424.774341	45425.032931	45425.847984	8.423661e-01	40	none	NaN	NaN
126	3	10	29	bathroom	sun_ahqjwnzgolcaoidx.tif	45426.609488	45426.868082	45427.683095	7.089219e-01	19	39	45428.747352	0
126	3	11	53	bathroom	sun_ausgutylgojavyoq.tif	45429.520706	45429.779301	45430.594508	6.588804e-01	43	none	NaN	NaN
126	3	12	59	bathroom	sun_axyrejkiiaqiurjk.tif	45431.364204	45431.622793	45432.437885	7.839843e-01	49	none	NaN	NaN
126	3	13	24	bathroom	sun_agrwbmhcpmfuwmsg.tif	45433.199352	45433.457946	45434.273055	8.006648e-01	14	none	NaN	NaN
126	3	14	58	bathroom	sun_axxbkopsgyouuebh.tif	45435.042845	45435.301435	45436.116575	7.506232e-01	48	none	NaN	NaN
126	3	15	31	bathroom	sun_akiytfaagpdsphgz.tif	45436.886337	45437.144933	45437.959944	6.839012e-01	21	none	NaN	NaN
126	3	16	13	bathroom	sun_aavhrsfjbserjtht.tif	45438.721490	45438.980077	45439.795104	7.589635e-01	3	none	NaN	NaN
126	3	17	54	bathroom	sun_auzqhkafidnkrwmo.tif	45440.556640	45440.815229	45441.630406	8.340258e-01	44	39	45442.715148	0
126	3	18	37	bathroom	sun_amzlamotzwfkwjco.tif	45443.492880	45443.751474	45444.566562	7.339427e-01	27	none	NaN	NaN
126	3	19	49	bathroom	sun_asfwthctfqerjvxr.tif	45445.328036	45445.586628	45446.401853	7.172622e-01	39	none	NaN	NaN
126	3	20	45	bathroom	sun_apkxzenqapsujocq.tif	45447.171524	45447.430117	45448.245279	6.755609e-01	35	none	NaN	NaN
126	3	21	39	bathroom	sun_anryaplzeujmzfkd.tif	45449.015022	45449.273610	45450.088705	6.505401e-01	29	none	NaN	NaN
126	3	22	51	bathroom	sun_atstyziqcmkahyxk.tif	45450.850173	45451.108758	45451.923891	7.673037e-01	41	none	NaN	NaN
126	3	23	30	bathroom	sun_ajlawzvmubibwbpy.tif	45452.693668	45452.952250	45453.767318	6.922414e-01	20	none	NaN	NaN
126	3	24	33	bathroom	sun_aljolscmmzydegqp.tif	45454.528817	45454.787403	45455.602579	7.839843e-01	23	none	NaN	NaN
126	3	25	20	bathroom	sun_afcoljnjfoxjtgja.tif	45456.372304	45456.630892	45457.445973	6.755609e-01	10	none	NaN	NaN
126	3	26	60	bathroom	sun_azqyogdvyhahyram.tif	45458.207460	45458.466049	45459.281080	8.090050e-01	50	none	NaN	NaN
126	3	27	22	bathroom	sun_agguqiubmwhqqunb.tif	45460.042612	45460.301203	45461.116330	7.673037e-01	12	37	45462.851298	0
126	3	28	55	bathroom	sun_avhrdrntsqrjzccq.tif	45463.629497	45463.888088	45464.703143	7.172622e-01	45	none	NaN	NaN
126	3	29	52	bathroom	sun_aunuadmjocsddsrl.tif	45465.464650	45465.723236	45466.538298	7.005817e-01	42	none	NaN	NaN
126	3	30	14	bathroom	sun_abapwbhyhkfixyex.tif	45467.308141	45467.566733	45468.381923	7.923245e-01	4	none	NaN	NaN
126	3	31	35	bathroom	sun_alotolagknyrgtsk.tif	45469.151630	45469.410221	45470.225286	7.756440e-01	25	39	45471.155149	1
126	3	32	11	bathroom	labelme_sfxiulhjbhlyiyt.tif	45471.929385	45472.187973	45473.003170	7.339427e-01	1	none	NaN	NaN
126	3	33	48	bathroom	sun_aqrpegblszgcoujh.tif	45473.772878	45474.031472	45474.847096	8.256855e-01	38	none	NaN	NaN
126	3	34	28	bathroom	sun_ahijqszoswveeyji.tif	45475.616372	45475.874964	45476.690002	7.506232e-01	18	39	45477.675289	1
126	3	35	57	bathroom	sun_axldvoqbuvuggfmq.tif	45478.452511	45478.711104	45479.526246	7.923245e-01	47	none	NaN	NaN
126	3	36	26	bathroom	sun_ahaulkltgpkeeemi.tif	45480.296006	45480.554590	45481.369637	7.256024e-01	16	none	NaN	NaN
126	3	37	23	bathroom	sun_aghyqhbptboemmoq.tif	45482.131157	45482.389749	45483.204784	8.173453e-01	13	none	NaN	NaN
126	3	38	47	bathroom	sun_apynckhmoftszqoq.tif	45483.966306	45484.224898	45485.040034	7.422830e-01	37	none	NaN	NaN
126	3	39	42	bathroom	sun_apeeialkgkuxddgh.tif	45485.809804	45486.068396	45486.883541	7.673037e-01	32	37	45488.227004	0
126	3	40	25	bathroom	sun_agyqfjcfkdcydepw.tif	45489.004636	45489.263219	45490.078413	6.839012e-01	15	none	NaN	NaN
126	3	41	32	bathroom	sun_aleqenyvunhactkl.tif	45490.848126	45491.106720	45491.921768	7.506232e-01	22	39	45493.059258	1
126	3	42	12	bathroom	sun_aapitsgbtktqubfy.tif	45493.834418	45494.093003	45494.908225	8.006648e-01	2	none	NaN	NaN
126	3	43	36	bathroom	sun_ambriybtogmepttm.tif	45495.677912	45495.936501	45496.751654	7.005817e-01	26	none	NaN	NaN
126	3	44	44	bathroom	sun_apkruvsevgegsdwp.tif	45497.521403	45497.779993	45498.595125	8.507063e-01	34	none	NaN	NaN
126	3	45	56	bathroom	sun_awnqiikzaispgmwo.tif	45499.364899	45499.623483	45500.438508	6.755609e-01	46	none	NaN	NaN
126	3	46	15	bathroom	sun_abjtwfukuwddzted.tif	45501.200047	45501.458634	45502.273757	8.423661e-01	5	none	NaN	NaN
126	3	47	16	bathroom	sun_acduarbnmmoglmiv.tif	45503.043542	45503.302127	45504.117281	7.005817e-01	6	none	NaN	NaN
126	3	48	43	bathroom	sun_apjevzvycyhuqghb.tif	45504.887031	45505.145625	45505.960688	7.756440e-01	33	none	NaN	NaN
126	3	49	40	bathroom	sun_aofnryafpsjimzsb.tif	45506.722185	45506.980773	45507.795920	6.672206e-01	30	none	NaN	NaN
126	3	50	41	bathroom	sun_aoybiabnpadelefl.tif	45508.557336	45508.815929	45509.630941	6.672206e-01	31	none	NaN	NaN
126	3	51	27	bathroom	sun_ahcvzmoyaycdoftf.tif	45510.392482	45510.651071	45511.466231	8.340258e-01	17	39	45512.698971	0
126	3	52	36	bathroom	sun_ambriybtogmepttm.tif	45513.470534	45513.729127	45514.544310	8.340258e-01	26	none	NaN	NaN
126	3	53	37	bathroom	sun_amzlamotzwfkwjco.tif	45515.314028	45515.572617	45516.387675	8.090050e-01	27	none	NaN	NaN
126	3	54	14	bathroom	sun_abapwbhyhkfixyex.tif	45517.149181	45517.407768	45518.222805	8.006648e-01	4	none	NaN	NaN
126	3	55	40	bathroom	sun_aofnryafpsjimzsb.tif	45518.984332	45519.242924	45520.058010	7.172622e-01	30	none	NaN	NaN
126	3	56	41	bathroom	sun_aoybiabnpadelefl.tif	45520.819480	45521.078068	45521.893301	6.588804e-01	31	none	NaN	NaN
126	3	57	39	bathroom	sun_anryaplzeujmzfkd.tif	45522.662976	45522.921568	45523.736620	6.839012e-01	29	none	NaN	NaN
126	3	58	43	bathroom	sun_apjevzvycyhuqghb.tif	45524.498123	45524.756716	45525.571820	6.922414e-01	33	none	NaN	NaN
126	3	59	60	bathroom	sun_azqyogdvyhahyram.tif	45526.341620	45526.600211	45527.415327	7.005817e-01	50	39	45528.403153	1
126	3	60	38	bathroom	sun_anhioqovhscjqqwb.tif	45529.177762	45529.436352	45530.251424	7.256024e-01	28	none	NaN	NaN
126	3	61	12	bathroom	sun_aapitsgbtktqubfy.tif	45531.012915	45531.271503	45532.086655	7.422830e-01	2	none	NaN	NaN
126	3	62	11	bathroom	labelme_sfxiulhjbhlyiyt.tif	45532.856405	45533.114997	45533.930138	7.756440e-01	1	none	NaN	NaN
126	3	63	30	bathroom	sun_ajlawzvmubibwbpy.tif	45534.699900	45534.958489	45535.773575	8.173453e-01	20	none	NaN	NaN
126	3	64	28	bathroom	sun_ahijqszoswveeyji.tif	45536.543389	45536.801972	45537.617112	6.505401e-01	18	none	NaN	NaN
126	3	65	48	bathroom	sun_aqrpegblszgcoujh.tif	45538.386888	45538.645475	45539.460636	7.506232e-01	38	none	NaN	NaN
126	3	66	25	bathroom	sun_agyqfjcfkdcydepw.tif	45540.230382	45540.488969	45541.304076	7.422830e-01	15	none	NaN	NaN
126	3	67	23	bathroom	sun_aghyqhbptboemmoq.tif	45542.065530	45542.324114	45543.139287	6.922414e-01	13	none	NaN	NaN
126	3	68	16	bathroom	sun_acduarbnmmoglmiv.tif	45543.909020	45544.167611	45544.982724	7.339427e-01	6	none	NaN	NaN
126	3	69	58	bathroom	sun_axxbkopsgyouuebh.tif	45545.744170	45546.002763	45546.817774	8.256855e-01	48	none	NaN	NaN
126	3	70	21	bathroom	sun_aggnnqpdorgxpvce.tif	45547.579326	45547.837910	45548.653138	8.173453e-01	11	none	NaN	NaN
126	3	71	26	bathroom	sun_ahaulkltgpkeeemi.tif	45549.422830	45549.681405	45550.496549	8.090050e-01	16	none	NaN	NaN
126	3	72	34	bathroom	sun_alkosphxlxwjwgjd.tif	45551.266304	45551.524900	45552.340107	6.505401e-01	24	none	NaN	NaN
126	3	73	52	bathroom	sun_aunuadmjocsddsrl.tif	45553.109802	45553.368385	45554.183536	6.672206e-01	42	none	NaN	NaN
126	3	74	15	bathroom	sun_abjtwfukuwddzted.tif	45554.953296	45555.211882	45556.026994	7.589635e-01	5	none	NaN	NaN
126	3	75	13	bathroom	sun_aavhrsfjbserjtht.tif	45556.796792	45557.055378	45557.870461	7.673037e-01	3	none	NaN	NaN
126	3	76	46	bathroom	sun_apmqjbnwghzuhhzh.tif	45558.631940	45558.890525	45559.705759	8.423661e-01	36	none	NaN	NaN
126	3	77	59	bathroom	sun_axyrejkiiaqiurjk.tif	45560.475434	45560.734019	45561.549244	7.923245e-01	49	none	NaN	NaN
126	3	78	42	bathroom	sun_apeeialkgkuxddgh.tif	45562.318923	45562.577510	45563.392667	7.839843e-01	32	none	NaN	NaN
126	3	79	24	bathroom	sun_agrwbmhcpmfuwmsg.tif	45564.162416	45564.421002	45565.236165	8.006648e-01	14	none	NaN	NaN
126	3	80	35	bathroom	sun_alotolagknyrgtsk.tif	45566.005912	45566.264502	45567.079579	7.172622e-01	25	39	45568.379117	0
126	3	81	57	bathroom	sun_axldvoqbuvuggfmq.tif	45569.150693	45569.409282	45570.224369	8.256855e-01	47	none	NaN	NaN
126	3	82	32	bathroom	sun_aleqenyvunhactkl.tif	45570.985845	45571.244432	45572.059644	7.422830e-01	22	none	NaN	NaN
126	3	83	55	bathroom	sun_avhrdrntsqrjzccq.tif	45572.829334	45573.087927	45573.903093	7.923245e-01	45	39	45575.635251	0
126	3	84	22	bathroom	sun_agguqiubmwhqqunb.tif	45576.407878	45576.666473	45577.481636	6.588804e-01	12	none	NaN	NaN
126	3	85	45	bathroom	sun_apkxzenqapsujocq.tif	45578.251371	45578.509966	45579.325019	7.339427e-01	35	none	NaN	NaN
126	3	86	20	bathroom	sun_afcoljnjfoxjtgja.tif	45580.086522	45580.345117	45581.160201	7.839843e-01	10	37	45582.355301	1
126	3	87	19	bathroom	sun_aclfzgynxzxlbepz.tif	45583.131204	45583.389796	45584.204913	7.589635e-01	9	none	NaN	NaN
126	3	88	31	bathroom	sun_akiytfaagpdsphgz.tif	45584.974699	45585.233294	45586.048319	7.589635e-01	21	none	NaN	NaN
126	3	89	47	bathroom	sun_apynckhmoftszqoq.tif	45586.809851	45587.068445	45587.883604	8.507063e-01	37	none	NaN	NaN
126	3	90	17	bathroom	sun_acegryoqftbzowsg.tif	45588.653343	45588.911932	45589.726989	6.839012e-01	7	none	NaN	NaN
126	3	91	33	bathroom	sun_aljolscmmzydegqp.tif	45590.488496	45590.747088	45591.562283	7.256024e-01	23	none	NaN	NaN
126	3	92	51	bathroom	sun_atstyziqcmkahyxk.tif	45592.331989	45592.590578	45593.405651	6.672206e-01	41	37	45594.290982	1
126	3	93	54	bathroom	sun_auzqhkafidnkrwmo.tif	45595.068031	45595.326622	45596.141649	8.173453e-01	44	none	NaN	NaN
126	3	94	18	bathroom	sun_acgyywnybuveqsro.tif	45596.903184	45597.161771	45597.976891	7.005817e-01	8	none	NaN	NaN
126	3	95	50	bathroom	sun_aspsyogrekjtfozg.tif	45598.746675	45599.005263	45599.820383	7.089219e-01	40	none	NaN	NaN
126	3	96	53	bathroom	sun_ausgutylgojavyoq.tif	45600.590171	45600.848761	45601.663990	7.756440e-01	43	none	NaN	NaN
126	3	97	56	bathroom	sun_awnqiikzaispgmwo.tif	45602.433664	45602.692251	45603.507301	8.090050e-01	46	39	45604.611393	0
126	3	98	49	bathroom	sun_asfwthctfqerjvxr.tif	45605.386583	45605.645174	45606.460357	7.589635e-01	39	none	NaN	NaN
126	3	99	44	bathroom	sun_apkruvsevgegsdwp.tif	45607.230081	45607.488667	45608.303729	6.588804e-01	34	none	NaN	NaN
126	3	100	29	bathroom	sun_ahqjwnzgolcaoidx.tif	45609.065235	45609.323818	45610.138935	8.340258e-01	19	none	NaN	NaN
126	4	1	68	kitchen	sun_aaxxjlsuzvqlgylf.tif	45622.061440	45622.320024	45623.018405	7.256024e-01	58	none	NaN	NaN
126	4	2	77	kitchen	sun_acxkpeoqbwcxfvip.tif	45623.788149	45624.046742	45624.745001	7.005817e-01	67	none	NaN	NaN
126	4	3	79	kitchen	sun_admlmbcdswaszruo.tif	45625.506517	45625.765108	45626.463421	8.173453e-01	69	none	NaN	NaN
126	4	4	86	kitchen	sun_aggjlwcdjsjcaemh.tif	45627.224891	45627.483480	45628.181861	7.089219e-01	76	none	NaN	NaN
126	4	5	94	kitchen	sun_ahywdevtimnqcsln.tif	45628.951600	45629.210186	45629.908441	7.005817e-01	84	none	NaN	NaN
126	4	6	95	kitchen	sun_aixorpehvfykdynp.tif	45630.669969	45630.928558	45631.626902	6.755609e-01	85	none	NaN	NaN
126	4	7	75	kitchen	sun_acgtpgfybqjmzeyw.tif	45632.396677	45632.655266	45633.353533	7.506232e-01	65	none	NaN	NaN
126	4	8	88	kitchen	sun_agubuxuukhzyzpdp.tif	45634.115042	45634.373636	45635.071966	6.588804e-01	78	none	NaN	NaN
126	4	9	85	kitchen	sun_afuyedyxivkhecmu.tif	45635.833412	45636.092001	45636.790293	7.839843e-01	75	37	45637.859348	1
126	4	10	104	kitchen	sun_auticobqsbwgoppi.tif	45638.636189	45638.894776	45639.593205	7.589635e-01	94	39	45640.747297	1
126	4	11	72	kitchen	sun_abpwyqmlzafvklqo.tif	45641.522383	45641.780970	45642.479253	7.923245e-01	62	none	NaN	NaN
126	4	12	66	kitchen	sun_aapllqyqlykszopd.tif	45643.240752	45643.499342	45644.197595	7.256024e-01	56	none	NaN	NaN
126	4	13	69	kitchen	sun_abdenxonkemggwsq.tif	45644.959121	45645.217709	45645.916053	8.090050e-01	59	39	45647.115081	1
126	4	14	108	kitchen	sun_aymvwlarqodbwuoc.tif	45647.887023	45648.145609	45648.843884	6.755609e-01	98	none	NaN	NaN
126	4	15	105	kitchen	sun_avszsnwsbuqfgzbn.tif	45649.605392	45649.863979	45650.562291	7.506232e-01	95	none	NaN	NaN
126	4	16	78	kitchen	sun_adgqasybjyktddhj.tif	45651.332098	45651.590690	45652.289115	8.006648e-01	68	none	NaN	NaN
126	4	17	101	kitchen	sun_aqeaevwwwjoqhzvl.tif	45653.058810	45653.317401	45654.015838	8.507063e-01	91	39	45654.931296	1
126	4	18	99	kitchen	sun_akcjzhbbjlbogpdi.tif	45655.703099	45655.961681	45656.660150	6.839012e-01	89	none	NaN	NaN
126	4	19	90	kitchen	sun_ahdycvpopffkzzsu.tif	45657.429807	45657.688398	45658.386795	7.422830e-01	80	none	NaN	NaN
126	4	20	70	kitchen	sun_abdxkyyxwfskuaqb.tif	45659.156515	45659.415108	45660.113376	8.340258e-01	60	none	NaN	NaN
126	4	21	81	kitchen	sun_aehawpgmrlhlvcow.tif	45660.874890	45661.133474	45661.831803	8.006648e-01	71	37	45663.122977	0
126	4	22	106	kitchen	sun_awcpdzzznmweyyhv.tif	45663.894537	45664.153136	45664.851564	8.090050e-01	96	none	NaN	NaN
126	4	23	93	kitchen	sun_ahspylgoovwmwvgk.tif	45665.621255	45665.879849	45666.578206	6.505401e-01	83	none	NaN	NaN
126	4	24	97	kitchen	sun_ajkqhtgcbgpcwrwn.tif	45667.339626	45667.598217	45668.296638	7.172622e-01	87	none	NaN	NaN
126	4	25	91	kitchen	sun_ahljzhgcdpomplvg.tif	45669.066332	45669.324924	45670.023280	7.256024e-01	81	none	NaN	NaN
126	4	26	96	kitchen	sun_ajcbwwvdlsvjyzje.tif	45670.793045	45671.051634	45671.750096	8.090050e-01	86	none	NaN	NaN
126	4	27	62	kitchen	labelme_kxvouciolcpqplr.tif	45672.519753	45672.778345	45673.476698	7.756440e-01	52	none	NaN	NaN
126	4	28	109	kitchen	sun_aypmqwcualkenuoe.tif	45674.246467	45674.505055	45675.203351	7.756440e-01	99	37	45676.139144	1
126	4	29	76	kitchen	sun_acwjdupvyjsugpay.tif	45676.915779	45677.174363	45677.872787	8.090050e-01	66	none	NaN	NaN
126	4	30	87	kitchen	sun_agorklincwxrdtga.tif	45678.642484	45678.901074	45679.599474	8.423661e-01	77	none	NaN	NaN
126	4	31	102	kitchen	sun_auaiucuqpdausiva.tif	45680.369195	45680.627785	45681.326155	8.340258e-01	92	none	NaN	NaN
126	4	32	110	kitchen	sun_azmutvzbxypaceni.tif	45682.095910	45682.354496	45683.052835	7.673037e-01	100	37	45684.675163	0
126	4	33	98	kitchen	sun_akchetnepxlcxhsu.tif	45685.449230	45685.707819	45686.406174	6.672206e-01	88	none	NaN	NaN
126	4	34	100	kitchen	sun_amjjdeyrggfqgmom.tif	45687.175938	45687.434535	45688.132962	7.339427e-01	90	39	45689.483377	0
126	4	35	107	kitchen	sun_axyyrmzcupyhlivc.tif	45690.253992	45690.512576	45691.210875	7.673037e-01	97	none	NaN	NaN
126	4	36	65	kitchen	sun_aamedkxepzlwuxes.tif	45691.972358	45692.230948	45692.929275	8.173453e-01	55	none	NaN	NaN
126	4	37	64	kitchen	sun_aadbddgrdsjugojn.tif	45693.690725	45693.949313	45694.649449	7.339427e-01	54	39	45696.611110	0
126	4	38	89	kitchen	sun_agzzivivdpnawacl.tif	45697.386056	45697.644644	45698.342970	8.423661e-01	79	none	NaN	NaN
126	4	39	103	kitchen	sun_aunzlwrbjumxhwdj.tif	45699.112767	45699.371356	45700.069784	6.839012e-01	93	none	NaN	NaN
126	4	40	71	kitchen	sun_abftihopvusyfakt.tif	45700.839472	45701.098063	45701.796332	7.422830e-01	61	none	NaN	NaN
126	4	41	83	kitchen	sun_aeqdocilnnpuvuhx.tif	45702.557841	45702.816437	45703.514898	6.505401e-01	73	none	NaN	NaN
126	4	42	73	kitchen	sun_abrcnpqqhmjwekyf.tif	45704.284556	45704.543142	45705.241572	6.505401e-01	63	none	NaN	NaN
126	4	43	84	kitchen	sun_aexklacwqwezaorf.tif	45706.011269	45706.269854	45706.968227	7.172622e-01	74	none	NaN	NaN
126	4	44	92	kitchen	sun_ahpczsiumwwocjkv.tif	45707.737977	45707.996566	45708.694873	7.673037e-01	82	none	NaN	NaN
126	4	45	82	kitchen	sun_aenotlpyftoioydp.tif	45709.456344	45709.714934	45710.413346	8.256855e-01	72	39	45711.514951	1
126	4	46	80	kitchen	sun_aegoxogugdkwpmpj.tif	45712.292486	45712.551075	45713.249540	6.922414e-01	70	none	NaN	NaN
126	4	47	61	kitchen	labelme_brsyyvweiuaazfr.tif	45714.019199	45714.277787	45714.976176	7.089219e-01	51	none	NaN	NaN
126	4	48	63	kitchen	labelme_rykdqxenmhulbdn.tif	45715.745904	45716.004497	45716.702865	8.173453e-01	53	37	45717.707166	1
126	4	49	67	kitchen	sun_aarfiyshqohlwkmo.tif	45718.481953	45718.740542	45719.438819	7.005817e-01	57	none	NaN	NaN
126	4	50	74	kitchen	sun_acfmftudsenhrfhy.tif	45720.200317	45720.458911	45721.157330	7.422830e-01	64	none	NaN	NaN
126	4	51	91	kitchen	sun_ahljzhgcdpomplvg.tif	45721.927028	45722.185618	45722.884076	7.923245e-01	81	none	NaN	NaN
126	4	52	85	kitchen	sun_afuyedyxivkhecmu.tif	45723.653742	45723.912328	45724.610631	8.256855e-01	75	none	NaN	NaN
126	4	53	78	kitchen	sun_adgqasybjyktddhj.tif	45725.372107	45725.630698	45726.329090	6.755609e-01	68	none	NaN	NaN
126	4	54	92	kitchen	sun_ahpczsiumwwocjkv.tif	45727.098821	45727.357405	45728.055736	6.588804e-01	82	none	NaN	NaN
126	4	55	87	kitchen	sun_agorklincwxrdtga.tif	45728.817188	45729.075779	45729.774180	8.256855e-01	77	none	NaN	NaN
126	4	56	102	kitchen	sun_auaiucuqpdausiva.tif	45730.543900	45730.802493	45731.500954	7.256024e-01	92	none	NaN	NaN
126	4	57	66	kitchen	sun_aapllqyqlykszopd.tif	45732.270630	45732.529200	45733.227524	8.006648e-01	56	39	45734.347265	1
126	4	58	106	kitchen	sun_awcpdzzznmweyyhv.tif	45735.123435	45735.382029	45736.080368	7.089219e-01	96	none	NaN	NaN
126	4	59	64	kitchen	sun_aadbddgrdsjugojn.tif	45736.850142	45737.108737	45737.807021	7.089219e-01	54	none	NaN	NaN
126	4	60	80	kitchen	sun_aegoxogugdkwpmpj.tif	45738.568518	45738.827108	45739.525512	6.672206e-01	70	none	NaN	NaN
126	4	61	73	kitchen	sun_abrcnpqqhmjwekyf.tif	45740.295228	45740.553815	45741.252139	7.673037e-01	63	none	NaN	NaN
126	4	62	105	kitchen	sun_avszsnwsbuqfgzbn.tif	45742.013598	45742.272186	45742.970654	7.422830e-01	95	none	NaN	NaN
126	4	63	62	kitchen	labelme_kxvouciolcpqplr.tif	45743.740307	45743.998898	45744.697221	7.172622e-01	52	none	NaN	NaN
126	4	64	89	kitchen	sun_agzzivivdpnawacl.tif	45745.458677	45745.717265	45746.415588	6.672206e-01	79	none	NaN	NaN
126	4	65	103	kitchen	sun_aunzlwrbjumxhwdj.tif	45747.177041	45747.435630	45748.133938	8.256855e-01	93	39	45749.691297	0
126	4	66	108	kitchen	sun_aymvwlarqodbwuoc.tif	45750.463629	45750.722220	45751.420641	8.423661e-01	98	none	NaN	NaN
126	4	67	72	kitchen	sun_abpwyqmlzafvklqo.tif	45752.190343	45752.448931	45753.147195	7.589635e-01	62	none	NaN	NaN
126	4	68	70	kitchen	sun_abdxkyyxwfskuaqb.tif	45753.908711	45754.167303	45754.865673	6.922414e-01	60	none	NaN	NaN
126	4	69	68	kitchen	sun_aaxxjlsuzvqlgylf.tif	45755.635424	45755.894013	45756.592290	6.755609e-01	58	39	45758.123113	0
126	4	70	110	kitchen	sun_azmutvzbxypaceni.tif	45758.896986	45759.155579	45759.854012	7.506232e-01	100	none	NaN	NaN
126	4	71	107	kitchen	sun_axyyrmzcupyhlivc.tif	45760.623697	45760.882284	45761.580571	6.922414e-01	97	none	NaN	NaN
126	4	72	97	kitchen	sun_ajkqhtgcbgpcwrwn.tif	45762.342062	45762.600653	45763.299093	7.339427e-01	87	none	NaN	NaN
126	4	73	65	kitchen	sun_aamedkxepzlwuxes.tif	45764.068775	45764.327360	45765.025668	7.589635e-01	55	37	45765.995225	0
126	4	74	99	kitchen	sun_akcjzhbbjlbogpdi.tif	45766.771450	45767.030040	45767.728326	6.839012e-01	89	none	NaN	NaN
126	4	75	94	kitchen	sun_ahywdevtimnqcsln.tif	45768.489817	45768.748405	45769.446863	7.839843e-01	84	none	NaN	NaN
126	4	76	83	kitchen	sun_aeqdocilnnpuvuhx.tif	45770.216529	45770.475123	45771.173407	8.340258e-01	73	none	NaN	NaN
126	4	77	86	kitchen	sun_aggjlwcdjsjcaemh.tif	45771.934903	45772.193492	45772.891848	6.672206e-01	76	none	NaN	NaN
126	4	78	95	kitchen	sun_aixorpehvfykdynp.tif	45773.661614	45773.920200	45774.618636	7.589635e-01	85	none	NaN	NaN
126	4	79	74	kitchen	sun_acfmftudsenhrfhy.tif	45775.388323	45775.646908	45776.345269	7.589635e-01	64	none	NaN	NaN
126	4	80	77	kitchen	sun_acxkpeoqbwcxfvip.tif	45777.115032	45777.373621	45778.071967	7.756440e-01	67	none	NaN	NaN
126	4	81	79	kitchen	sun_admlmbcdswaszruo.tif	45778.841744	45779.100332	45779.798788	7.923245e-01	69	none	NaN	NaN
126	4	82	84	kitchen	sun_aexklacwqwezaorf.tif	45780.568455	45780.827039	45781.525434	8.507063e-01	74	none	NaN	NaN
126	4	83	88	kitchen	sun_agubuxuukhzyzpdp.tif	45782.295163	45782.553750	45783.252016	7.923245e-01	78	none	NaN	NaN
126	4	84	109	kitchen	sun_aypmqwcualkenuoe.tif	45784.013532	45784.272124	45784.970508	8.423661e-01	99	none	NaN	NaN
126	4	85	63	kitchen	labelme_rykdqxenmhulbdn.tif	45785.740241	45785.998831	45786.697165	6.588804e-01	53	none	NaN	NaN
126	4	86	101	kitchen	sun_aqeaevwwwjoqhzvl.tif	45787.458610	45787.717200	45788.415478	8.340258e-01	91	none	NaN	NaN
126	4	87	93	kitchen	sun_ahspylgoovwmwvgk.tif	45789.176983	45789.435568	45790.133913	7.839843e-01	83	none	NaN	NaN
126	4	88	81	kitchen	sun_aehawpgmrlhlvcow.tif	45790.895353	45791.153940	45791.852383	7.339427e-01	71	none	NaN	NaN
126	4	89	90	kitchen	sun_ahdycvpopffkzzsu.tif	45792.622058	45792.880647	45793.578986	8.256855e-01	80	none	NaN	NaN
126	4	90	98	kitchen	sun_akchetnepxlcxhsu.tif	45794.348784	45794.607355	45795.305733	7.756440e-01	88	none	NaN	NaN
126	4	91	69	kitchen	sun_abdenxonkemggwsq.tif	45796.075482	45796.334066	45797.032372	6.922414e-01	59	none	NaN	NaN
126	4	92	96	kitchen	sun_ajcbwwvdlsvjyzje.tif	45797.793851	45798.052442	45798.750897	6.839012e-01	86	none	NaN	NaN
126	4	93	75	kitchen	sun_acgtpgfybqjmzeyw.tif	45799.520564	45799.779158	45800.477544	8.173453e-01	65	none	NaN	NaN
126	4	94	76	kitchen	sun_acwjdupvyjsugpay.tif	45801.247273	45801.505859	45802.204171	7.172622e-01	66	none	NaN	NaN
126	4	95	104	kitchen	sun_auticobqsbwgoppi.tif	45802.965636	45803.224231	45803.922665	8.006648e-01	94	none	NaN	NaN
126	4	96	82	kitchen	sun_aenotlpyftoioydp.tif	45804.692350	45804.950935	45805.649312	7.839843e-01	72	none	NaN	NaN
126	4	97	61	kitchen	labelme_brsyyvweiuaazfr.tif	45806.419065	45806.677649	45807.375992	7.005817e-01	51	none	NaN	NaN
126	4	98	71	kitchen	sun_abftihopvusyfakt.tif	45808.137430	45808.396020	45809.094367	6.588804e-01	61	none	NaN	NaN
126	4	99	67	kitchen	sun_aarfiyshqohlwkmo.tif	45809.864136	45810.122722	45810.821130	7.005817e-01	57	none	NaN	NaN
126	4	100	100	kitchen	sun_amjjdeyrggfqgmom.tif	45811.590846	45811.849436	45812.547874	7.506232e-01	90	none	NaN	NaN
126	5	1	47	bathroom	sun_apynckhmoftszqoq.tif	45821.742569	45822.001164	45822.707914	7.589635e-01	37	none	NaN	NaN
126	5	2	55	bathroom	sun_avhrdrntsqrjzccq.tif	45823.477626	45823.736213	45824.442951	6.505401e-01	45	39	45825.763387	1
126	5	3	45	bathroom	sun_apkxzenqapsujocq.tif	45826.538991	45826.797575	45827.504318	7.422830e-01	35	none	NaN	NaN
126	5	4	41	bathroom	sun_aoybiabnpadelefl.tif	45828.274042	45828.532634	45829.239392	7.089219e-01	31	none	NaN	NaN
126	5	5	21	bathroom	sun_aggnnqpdorgxpvce.tif	45830.009097	45830.267688	45830.974293	7.172622e-01	11	none	NaN	NaN
126	5	6	36	bathroom	sun_ambriybtogmepttm.tif	45831.735803	45831.994394	45832.701089	8.507063e-01	26	none	NaN	NaN
126	5	7	24	bathroom	sun_agrwbmhcpmfuwmsg.tif	45833.462515	45833.721106	45834.427761	6.755609e-01	14	none	NaN	NaN
126	5	8	37	bathroom	sun_amzlamotzwfkwjco.tif	45835.189225	45835.447816	45836.154476	7.005817e-01	27	none	NaN	NaN
126	5	9	20	bathroom	sun_afcoljnjfoxjtgja.tif	45836.915939	45837.174525	45837.881297	7.256024e-01	10	none	NaN	NaN
126	5	10	40	bathroom	sun_aofnryafpsjimzsb.tif	45838.650988	45838.909581	45839.616341	7.506232e-01	30	none	NaN	NaN
126	5	11	42	bathroom	sun_apeeialkgkuxddgh.tif	45840.386040	45840.644633	45841.351226	8.090050e-01	32	none	NaN	NaN
126	5	12	13	bathroom	sun_aavhrsfjbserjtht.tif	45842.112747	45842.371336	45843.078037	8.173453e-01	3	none	NaN	NaN
126	5	13	11	bathroom	labelme_sfxiulhjbhlyiyt.tif	45843.847803	45844.106393	45844.813065	7.256024e-01	1	none	NaN	NaN
126	5	14	34	bathroom	sun_alkosphxlxwjwgjd.tif	45845.574512	45845.833100	45846.539764	6.588804e-01	24	37	45847.627271	1
126	5	15	51	bathroom	sun_atstyziqcmkahyxk.tif	45848.402314	45848.660903	45849.367677	7.256024e-01	41	39	45851.466993	1
126	5	16	32	bathroom	sun_aleqenyvunhactkl.tif	45852.239450	45852.498037	45853.204805	7.839843e-01	22	none	NaN	NaN
126	5	17	26	bathroom	sun_ahaulkltgpkeeemi.tif	45853.974501	45854.233090	45854.939689	7.923245e-01	16	none	NaN	NaN
126	5	18	33	bathroom	sun_aljolscmmzydegqp.tif	45855.701211	45855.959798	45856.666503	7.005817e-01	23	39	45857.915175	0
126	5	19	28	bathroom	sun_ahijqszoswveeyji.tif	45858.687500	45858.946093	45859.652768	7.005817e-01	18	none	NaN	NaN
126	5	20	19	bathroom	sun_aclfzgynxzxlbepz.tif	45860.422556	45860.681148	45861.387749	7.589635e-01	9	none	NaN	NaN
126	5	21	35	bathroom	sun_alotolagknyrgtsk.tif	45862.149268	45862.407853	45863.114482	7.172622e-01	25	none	NaN	NaN
126	5	22	58	bathroom	sun_axxbkopsgyouuebh.tif	45863.875973	45864.134564	45864.841268	8.507063e-01	48	none	NaN	NaN
126	5	23	27	bathroom	sun_ahcvzmoyaycdoftf.tif	45865.602686	45865.861277	45866.568047	7.172622e-01	17	none	NaN	NaN
126	5	24	23	bathroom	sun_aghyqhbptboemmoq.tif	45867.337739	45867.596325	45868.302943	8.090050e-01	13	none	NaN	NaN
126	5	25	56	bathroom	sun_awnqiikzaispgmwo.tif	45869.064450	45869.323043	45870.029647	8.173453e-01	46	none	NaN	NaN
126	5	26	15	bathroom	sun_abjtwfukuwddzted.tif	45870.791158	45871.049746	45871.756401	7.422830e-01	5	none	NaN	NaN
126	5	27	48	bathroom	sun_aqrpegblszgcoujh.tif	45872.517871	45872.776459	45873.483173	8.423661e-01	38	none	NaN	NaN
126	5	28	18	bathroom	sun_acgyywnybuveqsro.tif	45874.244580	45874.503168	45875.209975	8.173453e-01	8	none	NaN	NaN
126	5	29	60	bathroom	sun_azqyogdvyhahyram.tif	45875.979634	45876.238224	45876.944890	8.006648e-01	50	none	NaN	NaN
126	5	30	46	bathroom	sun_apmqjbnwghzuhhzh.tif	45877.714682	45877.973271	45878.679937	6.755609e-01	36	none	NaN	NaN
126	5	31	30	bathroom	sun_ajlawzvmubibwbpy.tif	45879.441394	45879.699981	45880.406594	6.588804e-01	20	none	NaN	NaN
126	5	32	31	bathroom	sun_akiytfaagpdsphgz.tif	45881.168102	45881.426695	45882.133503	8.423661e-01	21	none	NaN	NaN
126	5	33	16	bathroom	sun_acduarbnmmoglmiv.tif	45882.903153	45883.161745	45883.868448	6.672206e-01	6	none	NaN	NaN
126	5	34	29	bathroom	sun_ahqjwnzgolcaoidx.tif	45884.638211	45884.896800	45885.603496	7.089219e-01	19	39	45887.042961	1
126	5	35	49	bathroom	sun_asfwthctfqerjvxr.tif	45887.816355	45888.074942	45888.781610	7.673037e-01	39	none	NaN	NaN
126	5	36	43	bathroom	sun_apjevzvycyhuqghb.tif	45889.551410	45889.810000	45890.516841	8.006648e-01	33	none	NaN	NaN
126	5	37	22	bathroom	sun_agguqiubmwhqqunb.tif	45891.286460	45891.545054	45892.251727	7.005817e-01	12	none	NaN	NaN
126	5	38	17	bathroom	sun_acegryoqftbzowsg.tif	45893.013173	45893.271762	45893.978568	6.672206e-01	7	none	NaN	NaN
126	5	39	44	bathroom	sun_apkruvsevgegsdwp.tif	45894.748220	45895.006812	45895.713510	7.756440e-01	34	39	45896.819115	1
126	5	40	52	bathroom	sun_aunuadmjocsddsrl.tif	45897.592706	45897.851297	45898.558062	8.006648e-01	42	none	NaN	NaN
126	5	41	59	bathroom	sun_axyrejkiiaqiurjk.tif	45899.327759	45899.586344	45900.293160	8.006648e-01	49	none	NaN	NaN
126	5	42	53	bathroom	sun_ausgutylgojavyoq.tif	45901.062811	45901.321395	45902.028150	7.089219e-01	43	none	NaN	NaN
126	5	43	12	bathroom	sun_aapitsgbtktqubfy.tif	45902.797864	45903.056453	45903.763130	6.588804e-01	2	none	NaN	NaN
126	5	44	25	bathroom	sun_agyqfjcfkdcydepw.tif	45904.524573	45904.783165	45905.489848	7.673037e-01	15	none	NaN	NaN
126	5	45	14	bathroom	sun_abapwbhyhkfixyex.tif	45906.251285	45906.509877	45907.216620	7.589635e-01	4	none	NaN	NaN
126	5	46	54	bathroom	sun_auzqhkafidnkrwmo.tif	45907.986334	45908.244928	45908.951533	8.090050e-01	44	none	NaN	NaN
126	5	47	39	bathroom	sun_anryaplzeujmzfkd.tif	45909.713045	45909.971639	45910.678347	7.839843e-01	29	none	NaN	NaN
126	5	48	38	bathroom	sun_anhioqovhscjqqwb.tif	45911.448096	45911.706690	45912.413290	6.755609e-01	28	none	NaN	NaN
126	5	49	57	bathroom	sun_axldvoqbuvuggfmq.tif	45913.174810	45913.433395	45914.140136	7.756440e-01	47	none	NaN	NaN
126	5	50	50	bathroom	sun_aspsyogrekjtfozg.tif	45914.909860	45915.168442	45915.875147	8.090050e-01	40	none	NaN	NaN
126	5	51	50	bathroom	sun_aspsyogrekjtfozg.tif	45916.644918	45916.903501	45917.610164	7.673037e-01	40	none	NaN	NaN
126	5	52	58	bathroom	sun_axxbkopsgyouuebh.tif	45918.379965	45918.638555	45919.345361	8.256855e-01	48	none	NaN	NaN
126	5	53	13	bathroom	sun_aavhrsfjbserjtht.tif	45920.115019	45920.373608	45921.080202	8.256855e-01	3	none	NaN	NaN
126	5	54	28	bathroom	sun_ahijqszoswveeyji.tif	45921.841729	45922.100317	45922.807037	7.422830e-01	18	none	NaN	NaN
126	5	55	31	bathroom	sun_akiytfaagpdsphgz.tif	45923.576776	45923.835370	45924.542004	7.589635e-01	21	none	NaN	NaN
126	5	56	14	bathroom	sun_abapwbhyhkfixyex.tif	45925.303494	45925.562079	45926.268764	8.340258e-01	4	none	NaN	NaN
126	5	57	26	bathroom	sun_ahaulkltgpkeeemi.tif	45927.038547	45927.297129	45928.003833	7.339427e-01	16	none	NaN	NaN
126	5	58	45	bathroom	sun_apkxzenqapsujocq.tif	45928.773596	45929.032188	45929.738811	8.256855e-01	35	none	NaN	NaN
126	5	59	52	bathroom	sun_aunuadmjocsddsrl.tif	45930.508648	45930.767237	45931.473962	7.839843e-01	42	none	NaN	NaN
126	5	60	15	bathroom	sun_abjtwfukuwddzted.tif	45932.235358	45932.493949	45933.200612	8.423661e-01	5	none	NaN	NaN
126	5	61	42	bathroom	sun_apeeialkgkuxddgh.tif	45933.970407	45934.229004	45934.935736	8.340258e-01	32	none	NaN	NaN
126	5	62	32	bathroom	sun_aleqenyvunhactkl.tif	45935.705459	45935.964069	45936.670812	8.340258e-01	22	none	NaN	NaN
126	5	63	34	bathroom	sun_alkosphxlxwjwgjd.tif	45937.440511	45937.699104	45938.405879	7.756440e-01	24	none	NaN	NaN
126	5	64	16	bathroom	sun_acduarbnmmoglmiv.tif	45939.175563	45939.434154	45940.140929	8.256855e-01	6	none	NaN	NaN
126	5	65	44	bathroom	sun_apkruvsevgegsdwp.tif	45940.910621	45941.169207	45941.876044	7.589635e-01	34	none	NaN	NaN
126	5	66	36	bathroom	sun_ambriybtogmepttm.tif	45942.645669	45942.904256	45943.610934	7.506232e-01	26	none	NaN	NaN
126	5	67	27	bathroom	sun_ahcvzmoyaycdoftf.tif	45944.372382	45944.630974	45945.337759	6.839012e-01	17	none	NaN	NaN
126	5	68	33	bathroom	sun_aljolscmmzydegqp.tif	45946.099088	45946.357682	45947.064358	8.173453e-01	23	39	45949.266943	1
126	5	69	49	bathroom	sun_asfwthctfqerjvxr.tif	45950.044666	45950.303252	45951.009896	6.922414e-01	39	none	NaN	NaN
126	5	70	46	bathroom	sun_apmqjbnwghzuhhzh.tif	45951.779716	45952.038305	45952.745010	6.588804e-01	36	39	45954.411254	1
126	5	71	60	bathroom	sun_azqyogdvyhahyram.tif	45955.183090	45955.441677	45956.148369	6.922414e-01	50	37	45957.595164	1
126	5	72	56	bathroom	sun_awnqiikzaispgmwo.tif	45958.369578	45958.628172	45959.334845	8.340258e-01	46	none	NaN	NaN
126	5	73	53	bathroom	sun_ausgutylgojavyoq.tif	45960.096292	45960.354877	45961.061560	7.923245e-01	43	none	NaN	NaN
126	5	74	12	bathroom	sun_aapitsgbtktqubfy.tif	45961.823001	45962.081584	45962.788296	7.923245e-01	2	none	NaN	NaN
126	5	75	38	bathroom	sun_anhioqovhscjqqwb.tif	45963.558052	45963.816640	45964.523435	6.922414e-01	28	none	NaN	NaN
126	5	76	47	bathroom	sun_apynckhmoftszqoq.tif	45965.293103	45965.551687	45966.258327	6.922414e-01	37	none	NaN	NaN
126	5	77	55	bathroom	sun_avhrdrntsqrjzccq.tif	45967.028155	45967.286745	45967.993584	6.839012e-01	45	none	NaN	NaN
126	5	78	29	bathroom	sun_ahqjwnzgolcaoidx.tif	45968.763203	45969.021798	45969.728534	8.423661e-01	19	none	NaN	NaN
126	5	79	20	bathroom	sun_afcoljnjfoxjtgja.tif	45970.498264	45970.756851	45971.463546	7.839843e-01	10	37	45972.443195	1
126	5	80	59	bathroom	sun_axyrejkiiaqiurjk.tif	45973.217619	45973.476205	45974.182979	6.505401e-01	49	none	NaN	NaN
126	5	81	39	bathroom	sun_anryaplzeujmzfkd.tif	45974.952674	45975.211260	45975.918035	7.256024e-01	29	none	NaN	NaN
126	5	82	18	bathroom	sun_acgyywnybuveqsro.tif	45976.687729	45976.946311	45977.652999	7.339427e-01	8	none	NaN	NaN
126	5	83	21	bathroom	sun_aggnnqpdorgxpvce.tif	45978.414437	45978.673027	45979.379661	7.089219e-01	11	none	NaN	NaN
126	5	84	37	bathroom	sun_amzlamotzwfkwjco.tif	45980.141146	45980.399732	45981.106454	7.172622e-01	27	39	45982.171256	1
126	5	85	11	bathroom	labelme_sfxiulhjbhlyiyt.tif	45982.943920	45983.202511	45983.909289	7.339427e-01	1	39	45985.939046	0
126	5	86	35	bathroom	sun_alotolagknyrgtsk.tif	45986.714325	45986.972913	45987.679534	7.506232e-01	25	39	45989.083170	0
126	5	87	30	bathroom	sun_ajlawzvmubibwbpy.tif	45989.859106	45990.117698	45990.824319	7.673037e-01	20	none	NaN	NaN
126	5	88	57	bathroom	sun_axldvoqbuvuggfmq.tif	45991.585817	45991.844405	45992.551039	6.839012e-01	47	none	NaN	NaN
126	5	89	22	bathroom	sun_agguqiubmwhqqunb.tif	45993.312528	45993.571117	45994.277736	6.755609e-01	12	none	NaN	NaN
126	5	90	19	bathroom	sun_aclfzgynxzxlbepz.tif	45995.039236	45995.297829	45996.004478	7.339427e-01	9	none	NaN	NaN
126	5	91	25	bathroom	sun_agyqfjcfkdcydepw.tif	45996.765950	45997.024534	45997.731253	6.672206e-01	15	37	45999.675171	1
126	5	92	43	bathroom	sun_apjevzvycyhuqghb.tif	46000.452932	46000.711526	46001.418202	6.672206e-01	33	none	NaN	NaN
126	5	93	54	bathroom	sun_auzqhkafidnkrwmo.tif	46002.187988	46002.446575	46003.153313	7.756440e-01	44	none	NaN	NaN
126	5	94	51	bathroom	sun_atstyziqcmkahyxk.tif	46003.923036	46004.181626	46004.888331	7.422830e-01	41	none	NaN	NaN
126	5	95	24	bathroom	sun_agrwbmhcpmfuwmsg.tif	46005.658087	46005.916677	46006.623375	6.839012e-01	14	none	NaN	NaN
126	5	96	23	bathroom	sun_aghyqhbptboemmoq.tif	46007.393142	46007.651733	46008.358344	7.005817e-01	13	39	46009.467281	1
126	5	97	40	bathroom	sun_aofnryafpsjimzsb.tif	46010.237626	46010.496216	46011.202921	6.505401e-01	30	none	NaN	NaN
126	5	98	41	bathroom	sun_aoybiabnpadelefl.tif	46011.972678	46012.231266	46012.937923	7.506232e-01	31	none	NaN	NaN
126	5	99	48	bathroom	sun_aqrpegblszgcoujh.tif	46013.707726	46013.966319	46014.672914	7.923245e-01	38	none	NaN	NaN
126	5	100	17	bathroom	sun_acegryoqftbzowsg.tif	46015.434443	46015.693033	46016.399764	8.256855e-01	7	none	NaN	NaN
126	6	1	64	kitchen	sun_aadbddgrdsjugojn.tif	46023.417346	46023.675935	46024.415909	8.423661e-01	54	none	NaN	NaN
126	6	2	81	kitchen	sun_aehawpgmrlhlvcow.tif	46025.177428	46025.436013	46026.176020	7.089219e-01	71	none	NaN	NaN
126	6	3	108	kitchen	sun_aymvwlarqodbwuoc.tif	46026.937505	46027.196089	46027.936195	6.839012e-01	98	none	NaN	NaN
126	6	4	65	kitchen	sun_aamedkxepzlwuxes.tif	46028.705922	46028.964512	46029.704500	8.256855e-01	55	none	NaN	NaN
126	6	5	87	kitchen	sun_agorklincwxrdtga.tif	46030.465999	46030.724589	46031.464683	8.173453e-01	77	none	NaN	NaN
126	6	6	90	kitchen	sun_ahdycvpopffkzzsu.tif	46032.234415	46032.493007	46033.233049	7.506232e-01	80	none	NaN	NaN
126	6	7	99	kitchen	sun_akcjzhbbjlbogpdi.tif	46033.994490	46034.253083	46034.993222	7.673037e-01	89	39	46036.731249	1
126	6	8	93	kitchen	sun_ahspylgoovwmwvgk.tif	46037.506308	46037.764891	46038.504924	7.005817e-01	83	none	NaN	NaN
126	6	9	62	kitchen	labelme_kxvouciolcpqplr.tif	46039.266382	46039.524965	46040.265132	6.672206e-01	52	none	NaN	NaN
126	6	10	69	kitchen	sun_abdenxonkemggwsq.tif	46041.034797	46041.293389	46042.033506	6.839012e-01	59	none	NaN	NaN
126	6	11	98	kitchen	sun_akchetnepxlcxhsu.tif	46042.803218	46043.061809	46043.801911	7.839843e-01	88	none	NaN	NaN
126	6	12	106	kitchen	sun_awcpdzzznmweyyhv.tif	46044.571638	46044.830229	46045.570218	7.923245e-01	96	none	NaN	NaN
126	6	13	109	kitchen	sun_aypmqwcualkenuoe.tif	46046.331713	46046.590306	46047.330413	6.922414e-01	99	none	NaN	NaN
126	6	14	100	kitchen	sun_amjjdeyrggfqgmom.tif	46048.100130	46048.358721	46049.098776	7.172622e-01	90	none	NaN	NaN
126	6	15	89	kitchen	sun_agzzivivdpnawacl.tif	46049.868547	46050.127140	46050.867089	8.256855e-01	79	none	NaN	NaN
126	6	16	103	kitchen	sun_aunzlwrbjumxhwdj.tif	46051.628622	46051.887216	46052.627177	6.922414e-01	93	none	NaN	NaN
126	6	17	78	kitchen	sun_adgqasybjyktddhj.tif	46053.388705	46053.647295	46054.387337	8.340258e-01	68	none	NaN	NaN
126	6	18	68	kitchen	sun_aaxxjlsuzvqlgylf.tif	46055.148781	46055.407370	46056.147355	8.256855e-01	58	none	NaN	NaN
126	6	19	71	kitchen	sun_abftihopvusyfakt.tif	46056.908857	46057.167451	46057.907459	7.089219e-01	61	none	NaN	NaN
126	6	20	105	kitchen	sun_avszsnwsbuqfgzbn.tif	46058.668936	46058.927525	46059.667579	6.505401e-01	95	39	46060.827266	1
126	6	21	73	kitchen	sun_abrcnpqqhmjwekyf.tif	46061.605177	46061.863767	46062.603725	7.589635e-01	63	none	NaN	NaN
126	6	22	67	kitchen	sun_aarfiyshqohlwkmo.tif	46063.365253	46063.623842	46064.363941	7.756440e-01	57	none	NaN	NaN
126	6	23	86	kitchen	sun_aggjlwcdjsjcaemh.tif	46065.133669	46065.392265	46066.132266	8.006648e-01	76	none	NaN	NaN
126	6	24	74	kitchen	sun_acfmftudsenhrfhy.tif	46066.893748	46067.152336	46067.892375	6.588804e-01	64	none	NaN	NaN
126	6	25	66	kitchen	sun_aapllqyqlykszopd.tif	46068.662166	46068.920757	46069.660838	7.172622e-01	56	none	NaN	NaN
126	6	26	95	kitchen	sun_aixorpehvfykdynp.tif	46070.430588	46070.689172	46071.429316	7.589635e-01	85	none	NaN	NaN
126	6	27	70	kitchen	sun_abdxkyyxwfskuaqb.tif	46072.199006	46072.457594	46073.197634	8.340258e-01	60	39	46074.331089	1
126	6	28	75	kitchen	sun_acgtpgfybqjmzeyw.tif	46075.101879	46075.360466	46076.100496	8.423661e-01	65	none	NaN	NaN
126	6	29	94	kitchen	sun_ahywdevtimnqcsln.tif	46076.861950	46077.120544	46077.860696	7.422830e-01	84	none	NaN	NaN
126	6	30	85	kitchen	sun_afuyedyxivkhecmu.tif	46078.622037	46078.880621	46079.620727	7.839843e-01	75	none	NaN	NaN
126	6	31	107	kitchen	sun_axyyrmzcupyhlivc.tif	46080.390455	46080.649040	46081.389077	8.173453e-01	97	none	NaN	NaN
126	6	32	91	kitchen	sun_ahljzhgcdpomplvg.tif	46082.150528	46082.409112	46083.149269	7.256024e-01	81	none	NaN	NaN
126	6	33	96	kitchen	sun_ajcbwwvdlsvjyzje.tif	46083.918947	46084.177535	46084.917606	7.756440e-01	86	39	46085.939344	1
126	6	34	82	kitchen	sun_aenotlpyftoioydp.tif	46086.713377	46086.971968	46087.712007	7.589635e-01	72	37	46089.019314	1
126	6	35	102	kitchen	sun_auaiucuqpdausiva.tif	46089.791434	46090.050018	46090.790088	8.006648e-01	92	37	46091.443122	1
126	6	36	72	kitchen	sun_abpwyqmlzafvklqo.tif	46092.218832	46092.477426	46093.217576	7.256024e-01	62	none	NaN	NaN
126	6	37	84	kitchen	sun_aexklacwqwezaorf.tif	46093.987256	46094.245843	46094.986004	7.673037e-01	74	39	46095.899304	1
126	6	38	101	kitchen	sun_aqeaevwwwjoqhzvl.tif	46096.673249	46096.931838	46097.671795	7.673037e-01	91	none	NaN	NaN
126	6	39	110	kitchen	sun_azmutvzbxypaceni.tif	46098.433323	46098.691911	46099.431953	6.588804e-01	100	none	NaN	NaN
126	6	40	83	kitchen	sun_aeqdocilnnpuvuhx.tif	46100.193402	46100.451987	46101.191953	8.006648e-01	73	none	NaN	NaN
126	6	41	77	kitchen	sun_acxkpeoqbwcxfvip.tif	46101.953476	46102.212067	46102.952104	8.256855e-01	67	none	NaN	NaN
126	6	42	63	kitchen	labelme_rykdqxenmhulbdn.tif	46103.713554	46103.972148	46104.712316	6.505401e-01	53	none	NaN	NaN
126	6	43	80	kitchen	sun_aegoxogugdkwpmpj.tif	46105.481971	46105.740565	46106.480563	7.089219e-01	70	none	NaN	NaN
126	6	44	79	kitchen	sun_admlmbcdswaszruo.tif	46107.242051	46107.500639	46108.240602	7.923245e-01	69	39	46109.235226	0
126	6	45	61	kitchen	labelme_brsyyvweiuaazfr.tif	46110.011456	46110.270045	46111.010175	7.005817e-01	51	none	NaN	NaN
126	6	46	97	kitchen	sun_ajkqhtgcbgpcwrwn.tif	46111.779873	46112.038462	46112.778509	7.089219e-01	87	none	NaN	NaN
126	6	47	88	kitchen	sun_agubuxuukhzyzpdp.tif	46113.539955	46113.798545	46114.538504	7.339427e-01	78	none	NaN	NaN
126	6	48	104	kitchen	sun_auticobqsbwgoppi.tif	46115.300032	46115.558620	46116.298594	7.756440e-01	94	none	NaN	NaN
126	6	49	76	kitchen	sun_acwjdupvyjsugpay.tif	46117.060108	46117.318698	46118.058784	7.589635e-01	66	none	NaN	NaN
126	6	50	92	kitchen	sun_ahpczsiumwwocjkv.tif	46118.820184	46119.078779	46119.818920	7.172622e-01	82	none	NaN	NaN
126	6	51	105	kitchen	sun_avszsnwsbuqfgzbn.tif	46120.588608	46120.847188	46121.587364	8.256855e-01	95	none	NaN	NaN
126	6	52	92	kitchen	sun_ahpczsiumwwocjkv.tif	46122.357023	46122.615611	46123.355753	8.340258e-01	82	none	NaN	NaN
126	6	53	83	kitchen	sun_aeqdocilnnpuvuhx.tif	46124.125431	46124.384029	46125.124047	7.339427e-01	73	none	NaN	NaN
126	6	54	94	kitchen	sun_ahywdevtimnqcsln.tif	46125.885514	46126.144107	46126.884252	8.090050e-01	84	none	NaN	NaN
126	6	55	101	kitchen	sun_aqeaevwwwjoqhzvl.tif	46127.653933	46127.912527	46128.652575	7.005817e-01	91	none	NaN	NaN
126	6	56	81	kitchen	sun_aehawpgmrlhlvcow.tif	46129.422352	46129.680947	46130.420922	6.839012e-01	71	none	NaN	NaN
126	6	57	87	kitchen	sun_agorklincwxrdtga.tif	46131.182429	46131.441023	46132.181034	8.090050e-01	77	none	NaN	NaN
126	6	58	89	kitchen	sun_agzzivivdpnawacl.tif	46132.942507	46133.201097	46133.941177	7.256024e-01	79	none	NaN	NaN
126	6	59	74	kitchen	sun_acfmftudsenhrfhy.tif	46134.710927	46134.969517	46135.709594	8.006648e-01	64	none	NaN	NaN
126	6	60	67	kitchen	sun_aarfiyshqohlwkmo.tif	46136.479345	46136.737935	46137.477999	6.922414e-01	57	none	NaN	NaN
126	6	61	63	kitchen	labelme_rykdqxenmhulbdn.tif	46138.247765	46138.506355	46139.246396	6.672206e-01	53	none	NaN	NaN
126	6	62	84	kitchen	sun_aexklacwqwezaorf.tif	46140.007839	46140.266428	46141.006396	6.588804e-01	74	none	NaN	NaN
126	6	63	103	kitchen	sun_aunzlwrbjumxhwdj.tif	46141.767915	46142.026508	46142.766516	6.922414e-01	93	37	46143.731144	1
126	6	64	91	kitchen	sun_ahljzhgcdpomplvg.tif	46144.503960	46144.762546	46145.502551	7.005817e-01	81	none	NaN	NaN
126	6	65	62	kitchen	labelme_kxvouciolcpqplr.tif	46146.264035	46146.522624	46147.262622	7.422830e-01	52	39	46148.491137	1
126	6	66	106	kitchen	sun_awcpdzzznmweyyhv.tif	46149.267014	46149.525600	46150.265607	6.672206e-01	96	none	NaN	NaN
126	6	67	68	kitchen	sun_aaxxjlsuzvqlgylf.tif	46151.027088	46151.285678	46152.025727	7.506232e-01	58	none	NaN	NaN
126	6	68	65	kitchen	sun_aamedkxepzlwuxes.tif	46152.787167	46153.045751	46153.785797	7.339427e-01	55	none	NaN	NaN
126	6	69	96	kitchen	sun_ajcbwwvdlsvjyzje.tif	46154.555583	46154.814173	46155.554243	7.005817e-01	86	none	NaN	NaN
126	6	70	110	kitchen	sun_azmutvzbxypaceni.tif	46156.324000	46156.582593	46157.322572	8.423661e-01	100	none	NaN	NaN
126	6	71	77	kitchen	sun_acxkpeoqbwcxfvip.tif	46158.084080	46158.342667	46159.082632	8.507063e-01	67	37	46160.483149	0
126	6	72	86	kitchen	sun_aggjlwcdjsjcaemh.tif	46161.253885	46161.512476	46162.252554	7.923245e-01	76	none	NaN	NaN
126	6	73	64	kitchen	sun_aadbddgrdsjugojn.tif	46163.022306	46163.280889	46164.020981	6.755609e-01	54	none	NaN	NaN
126	6	74	76	kitchen	sun_acwjdupvyjsugpay.tif	46164.790719	46165.049315	46165.789294	8.173453e-01	66	none	NaN	NaN
126	6	75	104	kitchen	sun_auticobqsbwgoppi.tif	46166.550803	46166.809391	46167.549376	8.507063e-01	94	none	NaN	NaN
126	6	76	95	kitchen	sun_aixorpehvfykdynp.tif	46168.310878	46168.569466	46169.309544	7.506232e-01	85	none	NaN	NaN
126	6	77	109	kitchen	sun_aypmqwcualkenuoe.tif	46170.079298	46170.337880	46171.077869	8.340258e-01	99	none	NaN	NaN
126	6	78	108	kitchen	sun_aymvwlarqodbwuoc.tif	46171.839372	46172.097962	46172.837941	6.755609e-01	98	37	46173.915066	1
126	6	79	100	kitchen	sun_amjjdeyrggfqgmom.tif	46174.692195	46174.950786	46175.690959	7.589635e-01	90	none	NaN	NaN
126	6	80	99	kitchen	sun_akcjzhbbjlbogpdi.tif	46176.460617	46176.719202	46177.459270	6.588804e-01	89	none	NaN	NaN
126	6	81	70	kitchen	sun_abdxkyyxwfskuaqb.tif	46178.229034	46178.487626	46179.227756	7.172622e-01	60	none	NaN	NaN
126	6	82	75	kitchen	sun_acgtpgfybqjmzeyw.tif	46179.997454	46180.256039	46180.996103	6.672206e-01	65	39	46182.195299	0
126	6	83	90	kitchen	sun_ahdycvpopffkzzsu.tif	46182.967060	46183.225646	46183.965620	6.755609e-01	80	none	NaN	NaN
126	6	84	97	kitchen	sun_ajkqhtgcbgpcwrwn.tif	46184.727139	46184.985724	46185.725729	6.839012e-01	87	none	NaN	NaN
126	6	85	88	kitchen	sun_agubuxuukhzyzpdp.tif	46186.487214	46186.745806	46187.485817	6.505401e-01	78	none	NaN	NaN
126	6	86	80	kitchen	sun_aegoxogugdkwpmpj.tif	46188.247292	46188.505881	46189.245909	8.090050e-01	70	none	NaN	NaN
126	6	87	82	kitchen	sun_aenotlpyftoioydp.tif	46190.007370	46190.265957	46191.006028	7.256024e-01	72	none	NaN	NaN
126	6	88	102	kitchen	sun_auaiucuqpdausiva.tif	46191.775784	46192.034382	46192.774400	7.923245e-01	92	39	46193.771174	1
126	6	89	66	kitchen	sun_aapllqyqlykszopd.tif	46194.545197	46194.803791	46195.543743	7.839843e-01	56	none	NaN	NaN
126	6	90	78	kitchen	sun_adgqasybjyktddhj.tif	46196.305276	46196.563863	46197.303981	8.090050e-01	68	none	NaN	NaN
126	6	91	61	kitchen	labelme_brsyyvweiuaazfr.tif	46198.073690	46198.332281	46199.072353	8.173453e-01	51	none	NaN	NaN
126	6	92	79	kitchen	sun_admlmbcdswaszruo.tif	46199.842107	46200.100703	46200.840865	8.423661e-01	69	37	46202.123211	1
126	6	93	73	kitchen	sun_abrcnpqqhmjwekyf.tif	46202.895137	46203.153726	46203.893725	7.673037e-01	63	none	NaN	NaN
126	6	94	69	kitchen	sun_abdenxonkemggwsq.tif	46204.655213	46204.913802	46205.653826	6.755609e-01	59	none	NaN	NaN
126	6	95	98	kitchen	sun_akchetnepxlcxhsu.tif	46206.415290	46206.673875	46207.413888	7.756440e-01	88	none	NaN	NaN
126	6	96	107	kitchen	sun_axyyrmzcupyhlivc.tif	46208.175365	46208.433959	46209.174019	7.839843e-01	97	none	NaN	NaN
126	6	97	71	kitchen	sun_abftihopvusyfakt.tif	46209.943781	46210.202375	46210.942445	7.506232e-01	61	none	NaN	NaN
126	6	98	85	kitchen	sun_afuyedyxivkhecmu.tif	46211.712202	46211.970791	46212.710786	7.339427e-01	75	none	NaN	NaN
126	6	99	93	kitchen	sun_ahspylgoovwmwvgk.tif	46213.472277	46213.730870	46214.470937	7.422830e-01	83	none	NaN	NaN
126	6	100	72	kitchen	sun_abpwyqmlzafvklqo.tif	46215.240697	46215.499290	46216.239373	7.422830e-01	62	none	NaN	NaN
126	7	1	30	bathroom	sun_ajlawzvmubibwbpy.tif	46223.398783	46223.657368	46224.347408	6.672206e-01	20	37	46225.563206	1
126	7	2	24	bathroom	sun_agrwbmhcpmfuwmsg.tif	46226.335021	46226.593608	46227.283660	7.422830e-01	14	none	NaN	NaN
126	7	3	18	bathroom	sun_acgyywnybuveqsro.tif	46228.053390	46228.311978	46229.002079	7.673037e-01	8	none	NaN	NaN
126	7	4	11	bathroom	labelme_sfxiulhjbhlyiyt.tif	46229.771757	46230.030344	46230.720258	7.506232e-01	1	none	NaN	NaN
126	7	5	36	bathroom	sun_ambriybtogmepttm.tif	46231.481788	46231.740375	46232.430323	7.839843e-01	26	none	NaN	NaN
126	7	6	59	bathroom	sun_axyrejkiiaqiurjk.tif	46233.191813	46233.450404	46234.140348	8.006648e-01	49	39	46235.227298	1
126	7	7	41	bathroom	sun_aoybiabnpadelefl.tif	46236.002931	46236.261519	46236.951526	7.005817e-01	31	none	NaN	NaN
126	7	8	27	bathroom	sun_ahcvzmoyaycdoftf.tif	46237.721303	46237.979891	46238.669937	7.339427e-01	17	none	NaN	NaN
126	7	9	33	bathroom	sun_aljolscmmzydegqp.tif	46239.439671	46239.698260	46240.388219	7.422830e-01	23	none	NaN	NaN
126	7	10	19	bathroom	sun_aclfzgynxzxlbepz.tif	46241.149696	46241.408287	46242.098238	6.755609e-01	9	none	NaN	NaN
126	7	11	50	bathroom	sun_aspsyogrekjtfozg.tif	46242.859715	46243.118306	46243.808402	7.506232e-01	40	none	NaN	NaN
126	7	12	25	bathroom	sun_agyqfjcfkdcydepw.tif	46244.578094	46244.836667	46245.526678	6.505401e-01	15	37	46246.403223	1
126	7	13	48	bathroom	sun_aqrpegblszgcoujh.tif	46247.180674	46247.439261	46248.129196	8.006648e-01	38	none	NaN	NaN
126	7	14	52	bathroom	sun_aunuadmjocsddsrl.tif	46248.890697	46249.149288	46249.839336	8.340258e-01	42	none	NaN	NaN
126	7	15	45	bathroom	sun_apkxzenqapsujocq.tif	46250.609064	46250.867660	46251.557639	7.923245e-01	35	none	NaN	NaN
126	7	16	54	bathroom	sun_auzqhkafidnkrwmo.tif	46252.319094	46252.577678	46253.267640	6.839012e-01	44	none	NaN	NaN
126	7	17	43	bathroom	sun_apjevzvycyhuqghb.tif	46254.029117	46254.287707	46254.977720	6.922414e-01	33	37	46256.003212	1
126	7	18	23	bathroom	sun_aghyqhbptboemmoq.tif	46256.773506	46257.032095	46257.722052	7.589635e-01	13	none	NaN	NaN
126	7	19	57	bathroom	sun_axldvoqbuvuggfmq.tif	46258.483531	46258.742123	46259.432093	7.506232e-01	47	none	NaN	NaN
126	7	20	13	bathroom	sun_aavhrsfjbserjtht.tif	46260.193559	46260.452146	46261.142169	8.173453e-01	3	none	NaN	NaN
126	7	21	28	bathroom	sun_ahijqszoswveeyji.tif	46261.911931	46262.170516	46262.860632	7.339427e-01	18	39	46263.675200	1
126	7	22	51	bathroom	sun_atstyziqcmkahyxk.tif	46264.447773	46264.706380	46265.396377	7.256024e-01	41	none	NaN	NaN
126	7	23	55	bathroom	sun_avhrdrntsqrjzccq.tif	46266.166142	46266.424733	46267.114667	7.089219e-01	45	none	NaN	NaN
126	7	24	40	bathroom	sun_aofnryafpsjimzsb.tif	46267.876166	46268.134759	46268.824813	6.922414e-01	30	none	NaN	NaN
126	7	25	44	bathroom	sun_apkruvsevgegsdwp.tif	46269.594538	46269.853130	46270.543065	8.090050e-01	34	none	NaN	NaN
126	7	26	42	bathroom	sun_apeeialkgkuxddgh.tif	46271.304567	46271.563160	46272.253252	8.173453e-01	32	none	NaN	NaN
126	7	27	20	bathroom	sun_afcoljnjfoxjtgja.tif	46273.022938	46273.281525	46273.971618	7.172622e-01	10	none	NaN	NaN
126	7	28	17	bathroom	sun_acegryoqftbzowsg.tif	46274.741304	46274.999885	46275.689966	8.256855e-01	7	none	NaN	NaN
126	7	29	37	bathroom	sun_amzlamotzwfkwjco.tif	46276.459671	46276.718260	46277.408364	6.922414e-01	27	none	NaN	NaN
126	7	30	16	bathroom	sun_acduarbnmmoglmiv.tif	46278.178039	46278.436634	46279.126695	6.839012e-01	6	none	NaN	NaN
126	7	31	34	bathroom	sun_alkosphxlxwjwgjd.tif	46279.896408	46280.155005	46280.844921	8.340258e-01	24	none	NaN	NaN
126	7	32	49	bathroom	sun_asfwthctfqerjvxr.tif	46281.606436	46281.865028	46282.554962	7.673037e-01	39	none	NaN	NaN
126	7	33	31	bathroom	sun_akiytfaagpdsphgz.tif	46283.316468	46283.575053	46284.265082	7.923245e-01	21	none	NaN	NaN
126	7	34	53	bathroom	sun_ausgutylgojavyoq.tif	46285.034835	46285.293421	46285.983337	7.089219e-01	43	39	46287.523057	1
126	7	35	39	bathroom	sun_anryaplzeujmzfkd.tif	46288.296400	46288.554992	46289.245002	8.423661e-01	29	none	NaN	NaN
126	7	36	21	bathroom	sun_aggnnqpdorgxpvce.tif	46290.014768	46290.273357	46290.963306	7.923245e-01	11	39	46291.987214	1
126	7	37	56	bathroom	sun_awnqiikzaispgmwo.tif	46292.759146	46293.017741	46293.707844	7.339427e-01	46	none	NaN	NaN
126	7	38	14	bathroom	sun_abapwbhyhkfixyex.tif	46294.477518	46294.736112	46295.426171	8.173453e-01	4	none	NaN	NaN
126	7	39	60	bathroom	sun_azqyogdvyhahyram.tif	46296.195889	46296.454478	46297.144504	7.589635e-01	50	none	NaN	NaN
126	7	40	38	bathroom	sun_anhioqovhscjqqwb.tif	46297.914260	46298.172849	46298.862887	8.256855e-01	28	none	NaN	NaN
126	7	41	47	bathroom	sun_apynckhmoftszqoq.tif	46299.632628	46299.891235	46300.581304	6.505401e-01	37	none	NaN	NaN
126	7	42	12	bathroom	sun_aapitsgbtktqubfy.tif	46301.350999	46301.609586	46302.299558	8.006648e-01	2	none	NaN	NaN
126	7	43	22	bathroom	sun_agguqiubmwhqqunb.tif	46303.061019	46303.319611	46304.009724	7.422830e-01	12	37	46305.179151	1
126	7	44	46	bathroom	sun_apmqjbnwghzuhhzh.tif	46305.955556	46306.214140	46306.904144	8.340258e-01	36	none	NaN	NaN
126	7	45	58	bathroom	sun_axxbkopsgyouuebh.tif	46307.665583	46307.924177	46308.614106	8.256855e-01	48	none	NaN	NaN
126	7	46	35	bathroom	sun_alotolagknyrgtsk.tif	46309.375610	46309.634201	46310.324118	8.423661e-01	25	none	NaN	NaN
126	7	47	26	bathroom	sun_ahaulkltgpkeeemi.tif	46311.085641	46311.344232	46312.034185	8.090050e-01	16	none	NaN	NaN
126	7	48	29	bathroom	sun_ahqjwnzgolcaoidx.tif	46312.804007	46313.062598	46313.752545	6.672206e-01	19	none	NaN	NaN
126	7	49	32	bathroom	sun_aleqenyvunhactkl.tif	46314.514059	46314.772625	46315.462690	7.589635e-01	22	none	NaN	NaN
126	7	50	15	bathroom	sun_abjtwfukuwddzted.tif	46316.232405	46316.490990	46317.181025	6.588804e-01	5	none	NaN	NaN
126	7	51	16	bathroom	sun_acduarbnmmoglmiv.tif	46317.950776	46318.209368	46318.899402	7.172622e-01	6	none	NaN	NaN
126	7	52	53	bathroom	sun_ausgutylgojavyoq.tif	46319.669145	46319.927732	46320.617770	8.340258e-01	43	none	NaN	NaN
126	7	53	23	bathroom	sun_aghyqhbptboemmoq.tif	46321.387511	46321.646103	46322.336149	7.756440e-01	13	none	NaN	NaN
126	7	54	17	bathroom	sun_acegryoqftbzowsg.tif	46323.105878	46323.364469	46324.054487	6.672206e-01	7	none	NaN	NaN
126	7	55	32	bathroom	sun_aleqenyvunhactkl.tif	46324.824251	46325.082836	46325.772845	8.423661e-01	22	39	46326.803059	0
126	7	56	37	bathroom	sun_amzlamotzwfkwjco.tif	46327.576977	46327.835561	46328.525553	8.090050e-01	27	none	NaN	NaN
126	7	57	59	bathroom	sun_axyrejkiiaqiurjk.tif	46329.287004	46329.545588	46330.235512	7.506232e-01	49	39	46331.675099	1
126	7	58	41	bathroom	sun_aoybiabnpadelefl.tif	46332.448468	46332.707057	46333.396983	7.005817e-01	31	none	NaN	NaN
126	7	59	26	bathroom	sun_ahaulkltgpkeeemi.tif	46334.158497	46334.417083	46335.107118	8.090050e-01	16	none	NaN	NaN
126	7	60	55	bathroom	sun_avhrdrntsqrjzccq.tif	46335.876864	46336.135457	46336.825580	6.755609e-01	45	none	NaN	NaN
126	7	61	40	bathroom	sun_aofnryafpsjimzsb.tif	46337.595234	46337.853825	46338.543805	7.339427e-01	30	none	NaN	NaN
126	7	62	33	bathroom	sun_aljolscmmzydegqp.tif	46339.305258	46339.563852	46340.253766	6.922414e-01	23	none	NaN	NaN
126	7	63	24	bathroom	sun_agrwbmhcpmfuwmsg.tif	46341.015287	46341.273876	46341.963938	7.589635e-01	14	none	NaN	NaN
126	7	64	39	bathroom	sun_anryaplzeujmzfkd.tif	46342.725314	46342.983907	46343.673874	8.507063e-01	29	none	NaN	NaN
126	7	65	38	bathroom	sun_anhioqovhscjqqwb.tif	46344.443681	46344.702273	46345.392388	6.588804e-01	28	none	NaN	NaN
126	7	66	15	bathroom	sun_abjtwfukuwddzted.tif	46346.162048	46346.420640	46347.110576	6.755609e-01	5	none	NaN	NaN
126	7	67	42	bathroom	sun_apeeialkgkuxddgh.tif	46347.872085	46348.130670	46348.820594	7.839843e-01	32	none	NaN	NaN
126	7	68	11	bathroom	labelme_sfxiulhjbhlyiyt.tif	46349.582109	46349.840695	46350.530740	8.507063e-01	1	none	NaN	NaN
126	7	69	12	bathroom	sun_aapitsgbtktqubfy.tif	46351.300472	46351.559062	46352.248977	6.839012e-01	2	none	NaN	NaN
126	7	70	43	bathroom	sun_apjevzvycyhuqghb.tif	46353.010504	46353.269087	46353.959123	7.256024e-01	33	none	NaN	NaN
126	7	71	47	bathroom	sun_apynckhmoftszqoq.tif	46354.728870	46354.987462	46355.677502	8.006648e-01	37	37	46356.795235	1
126	7	72	34	bathroom	sun_alkosphxlxwjwgjd.tif	46357.573356	46357.831945	46358.521964	7.589635e-01	24	none	NaN	NaN
126	7	73	30	bathroom	sun_ajlawzvmubibwbpy.tif	46359.291726	46359.550313	46360.240334	7.172622e-01	20	none	NaN	NaN
126	7	74	56	bathroom	sun_awnqiikzaispgmwo.tif	46361.010092	46361.268680	46361.958713	6.588804e-01	46	none	NaN	NaN
126	7	75	36	bathroom	sun_ambriybtogmepttm.tif	46362.728464	46362.987051	46363.677161	8.173453e-01	26	none	NaN	NaN
126	7	76	46	bathroom	sun_apmqjbnwghzuhhzh.tif	46364.446833	46364.705418	46365.395342	6.672206e-01	36	none	NaN	NaN
126	7	77	14	bathroom	sun_abapwbhyhkfixyex.tif	46366.156859	46366.415448	46367.105533	7.756440e-01	4	none	NaN	NaN
126	7	78	19	bathroom	sun_aclfzgynxzxlbepz.tif	46367.875228	46368.133816	46368.823917	7.005817e-01	9	none	NaN	NaN
126	7	79	25	bathroom	sun_agyqfjcfkdcydepw.tif	46369.593597	46369.852187	46370.542155	7.005817e-01	15	none	NaN	NaN
126	7	80	13	bathroom	sun_aavhrsfjbserjtht.tif	46371.311964	46371.570554	46372.260679	7.256024e-01	3	none	NaN	NaN
126	7	81	60	bathroom	sun_azqyogdvyhahyram.tif	46373.030333	46373.288927	46373.979001	7.422830e-01	50	none	NaN	NaN
126	7	82	50	bathroom	sun_aspsyogrekjtfozg.tif	46374.748702	46375.007289	46375.697401	6.505401e-01	40	39	46376.731306	1
126	7	83	22	bathroom	sun_agguqiubmwhqqunb.tif	46377.509769	46377.768362	46378.458603	6.588804e-01	12	none	NaN	NaN
126	7	84	20	bathroom	sun_afcoljnjfoxjtgja.tif	46379.228142	46379.486725	46380.176858	8.256855e-01	10	none	NaN	NaN
126	7	85	18	bathroom	sun_acgyywnybuveqsro.tif	46380.946505	46381.205098	46381.895156	6.755609e-01	8	none	NaN	NaN
126	7	86	58	bathroom	sun_axxbkopsgyouuebh.tif	46382.664878	46382.923470	46383.613408	7.756440e-01	48	none	NaN	NaN
126	7	87	35	bathroom	sun_alotolagknyrgtsk.tif	46384.374908	46384.633499	46385.323618	7.256024e-01	25	none	NaN	NaN
126	7	88	44	bathroom	sun_apkruvsevgegsdwp.tif	46386.093276	46386.351863	46387.041905	7.005817e-01	34	none	NaN	NaN
126	7	89	48	bathroom	sun_aqrpegblszgcoujh.tif	46387.811640	46388.070232	46388.760348	7.839843e-01	38	none	NaN	NaN
126	7	90	45	bathroom	sun_apkxzenqapsujocq.tif	46389.530010	46389.788603	46390.478694	7.839843e-01	35	none	NaN	NaN
126	7	91	57	bathroom	sun_axldvoqbuvuggfmq.tif	46391.248379	46391.506973	46392.196980	7.089219e-01	47	37	46393.939121	0
126	7	92	51	bathroom	sun_atstyziqcmkahyxk.tif	46394.710140	46394.968727	46395.658789	7.172622e-01	41	none	NaN	NaN
126	7	93	31	bathroom	sun_akiytfaagpdsphgz.tif	46396.428515	46396.687103	46397.377218	7.923245e-01	21	none	NaN	NaN
126	7	94	29	bathroom	sun_ahqjwnzgolcaoidx.tif	46398.146874	46398.405469	46399.095419	8.256855e-01	19	none	NaN	NaN
126	7	95	54	bathroom	sun_auzqhkafidnkrwmo.tif	46399.856899	46400.115499	46400.805519	8.423661e-01	44	37	46401.867370	1
126	7	96	49	bathroom	sun_asfwthctfqerjvxr.tif	46402.642999	46402.901591	46403.591640	7.756440e-01	39	none	NaN	NaN
126	7	97	52	bathroom	sun_aunuadmjocsddsrl.tif	46404.361373	46404.619960	46405.309942	7.673037e-01	42	none	NaN	NaN
126	7	98	28	bathroom	sun_ahijqszoswveeyji.tif	46406.079735	46406.338327	46407.028288	6.839012e-01	18	none	NaN	NaN
126	7	99	21	bathroom	sun_aggnnqpdorgxpvce.tif	46407.789763	46408.048357	46408.738324	7.089219e-01	11	37	46410.131216	1
126	7	100	27	bathroom	sun_ahcvzmoyaycdoftf.tif	46410.909525	46411.168114	46411.858177	7.673037e-01	17	none	NaN	NaN
126	8	1	66	kitchen	sun_aapllqyqlykszopd.tif	46418.200080	46418.458670	46419.148602	6.755609e-01	56	none	NaN	NaN
126	8	2	91	kitchen	sun_ahljzhgcdpomplvg.tif	46419.910108	46420.168696	46420.858733	7.589635e-01	81	37	46422.163295	1
126	8	3	104	kitchen	sun_auticobqsbwgoppi.tif	46422.938108	46423.196698	46423.886756	8.507063e-01	94	none	NaN	NaN
126	8	4	109	kitchen	sun_aypmqwcualkenuoe.tif	46424.656472	46424.915063	46425.605033	7.756440e-01	99	none	NaN	NaN
126	8	5	81	kitchen	sun_aehawpgmrlhlvcow.tif	46426.366499	46426.625088	46427.315147	7.089219e-01	71	37	46428.115076	1
126	8	6	101	kitchen	sun_aqeaevwwwjoqhzvl.tif	46428.885663	46429.144255	46429.834334	7.256024e-01	91	none	NaN	NaN
126	8	7	85	kitchen	sun_afuyedyxivkhecmu.tif	46430.604028	46430.862621	46431.552623	8.256855e-01	75	none	NaN	NaN
126	8	8	83	kitchen	sun_aeqdocilnnpuvuhx.tif	46432.314062	46432.572646	46433.262724	7.005817e-01	73	none	NaN	NaN
126	8	9	80	kitchen	sun_aegoxogugdkwpmpj.tif	46434.032429	46434.291018	46434.981002	8.090050e-01	70	none	NaN	NaN
126	8	10	86	kitchen	sun_aggjlwcdjsjcaemh.tif	46435.742460	46436.001046	46436.691149	6.672206e-01	76	37	46438.187153	0
126	8	11	65	kitchen	sun_aamedkxepzlwuxes.tif	46438.962309	46439.220899	46439.910822	7.005817e-01	55	none	NaN	NaN
126	8	12	98	kitchen	sun_akchetnepxlcxhsu.tif	46440.672339	46440.930931	46441.620967	7.005817e-01	88	none	NaN	NaN
126	8	13	77	kitchen	sun_acxkpeoqbwcxfvip.tif	46442.390707	46442.649300	46443.339295	8.006648e-01	67	none	NaN	NaN
126	8	14	96	kitchen	sun_ajcbwwvdlsvjyzje.tif	46444.109074	46444.367666	46445.057778	8.256855e-01	86	none	NaN	NaN
126	8	15	84	kitchen	sun_aexklacwqwezaorf.tif	46445.827445	46446.086035	46446.776147	7.256024e-01	74	39	46448.067202	1
126	8	16	79	kitchen	sun_admlmbcdswaszruo.tif	46448.838763	46449.097352	46449.787451	7.506232e-01	69	none	NaN	NaN
126	8	17	89	kitchen	sun_agzzivivdpnawacl.tif	46450.557126	46450.815720	46451.505750	8.423661e-01	79	37	46452.451080	1
126	8	18	92	kitchen	sun_ahpczsiumwwocjkv.tif	46453.226439	46453.485030	46454.175070	8.423661e-01	82	none	NaN	NaN
126	8	19	93	kitchen	sun_ahspylgoovwmwvgk.tif	46454.944810	46455.203404	46455.893433	7.756440e-01	83	39	46457.307192	1
126	8	20	87	kitchen	sun_agorklincwxrdtga.tif	46458.081252	46458.339837	46459.029971	7.839843e-01	77	37	46459.955173	1
126	8	21	68	kitchen	sun_aaxxjlsuzvqlgylf.tif	46460.725536	46460.984127	46461.674234	6.839012e-01	58	none	NaN	NaN
126	8	22	76	kitchen	sun_acwjdupvyjsugpay.tif	46462.443905	46462.702497	46463.392618	6.588804e-01	66	none	NaN	NaN
126	8	23	67	kitchen	sun_aarfiyshqohlwkmo.tif	46464.162271	46464.420862	46465.110866	6.588804e-01	57	none	NaN	NaN
126	8	24	97	kitchen	sun_ajkqhtgcbgpcwrwn.tif	46465.880642	46466.139232	46466.829241	7.506232e-01	87	none	NaN	NaN
126	8	25	110	kitchen	sun_azmutvzbxypaceni.tif	46467.599016	46467.857603	46468.547723	7.172622e-01	100	none	NaN	NaN
126	8	26	105	kitchen	sun_avszsnwsbuqfgzbn.tif	46469.317380	46469.575970	46470.266077	7.839843e-01	95	none	NaN	NaN
126	8	27	70	kitchen	sun_abdxkyyxwfskuaqb.tif	46471.035747	46471.294340	46471.984331	8.507063e-01	60	none	NaN	NaN
126	8	28	69	kitchen	sun_abdenxonkemggwsq.tif	46472.745778	46473.004368	46473.694475	7.506232e-01	59	none	NaN	NaN
126	8	29	64	kitchen	sun_aadbddgrdsjugojn.tif	46474.464149	46474.722732	46475.413030	8.423661e-01	54	none	NaN	NaN
126	8	30	72	kitchen	sun_abpwyqmlzafvklqo.tif	46476.182515	46476.441104	46477.131146	7.673037e-01	62	none	NaN	NaN
126	8	31	71	kitchen	sun_abftihopvusyfakt.tif	46477.900880	46478.159475	46478.849420	7.589635e-01	61	none	NaN	NaN
126	8	32	108	kitchen	sun_aymvwlarqodbwuoc.tif	46479.610912	46479.869502	46480.559501	8.340258e-01	98	none	NaN	NaN
126	8	33	102	kitchen	sun_auaiucuqpdausiva.tif	46481.320937	46481.579529	46482.269502	7.339427e-01	92	none	NaN	NaN
126	8	34	75	kitchen	sun_acgtpgfybqjmzeyw.tif	46483.030967	46483.289553	46483.979545	7.923245e-01	65	none	NaN	NaN
126	8	35	100	kitchen	sun_amjjdeyrggfqgmom.tif	46484.740993	46484.999579	46485.689553	8.256855e-01	90	none	NaN	NaN
126	8	36	74	kitchen	sun_acfmftudsenhrfhy.tif	46486.451021	46486.709607	46487.399538	7.673037e-01	64	none	NaN	NaN
126	8	37	73	kitchen	sun_abrcnpqqhmjwekyf.tif	46488.161046	46488.419635	46489.109640	8.006648e-01	63	none	NaN	NaN
126	8	38	94	kitchen	sun_ahywdevtimnqcsln.tif	46489.879413	46490.138008	46490.827997	8.173453e-01	84	none	NaN	NaN
126	8	39	106	kitchen	sun_awcpdzzznmweyyhv.tif	46491.589441	46491.848030	46492.538115	6.922414e-01	96	none	NaN	NaN
126	8	40	103	kitchen	sun_aunzlwrbjumxhwdj.tif	46493.307811	46493.566402	46494.256339	7.172622e-01	93	none	NaN	NaN
126	8	41	99	kitchen	sun_akcjzhbbjlbogpdi.tif	46495.017839	46495.276427	46495.966525	7.422830e-01	89	none	NaN	NaN
126	8	42	63	kitchen	labelme_rykdqxenmhulbdn.tif	46496.736209	46496.994796	46497.684814	8.256855e-01	53	none	NaN	NaN
126	8	43	61	kitchen	labelme_brsyyvweiuaazfr.tif	46498.454574	46498.713169	46499.403207	7.506232e-01	51	none	NaN	NaN
126	8	44	88	kitchen	sun_agubuxuukhzyzpdp.tif	46500.172966	46500.431535	46501.121676	7.589635e-01	78	none	NaN	NaN
126	8	45	95	kitchen	sun_aixorpehvfykdynp.tif	46501.891314	46502.149902	46502.839994	7.089219e-01	85	none	NaN	NaN
126	8	46	62	kitchen	labelme_kxvouciolcpqplr.tif	46503.609681	46503.868269	46504.558227	7.839843e-01	52	none	NaN	NaN
126	8	47	78	kitchen	sun_adgqasybjyktddhj.tif	46505.319708	46505.578304	46506.268423	8.423661e-01	68	none	NaN	NaN
126	8	48	82	kitchen	sun_aenotlpyftoioydp.tif	46507.038082	46507.296666	46507.986720	6.755609e-01	72	37	46509.155045	1
126	8	49	90	kitchen	sun_ahdycvpopffkzzsu.tif	46509.932613	46510.191202	46510.881228	7.422830e-01	80	none	NaN	NaN
126	8	50	107	kitchen	sun_axyyrmzcupyhlivc.tif	46511.650982	46511.909568	46512.599499	6.839012e-01	97	none	NaN	NaN
126	8	51	109	kitchen	sun_aypmqwcualkenuoe.tif	46513.361006	46513.619599	46514.309592	7.756440e-01	99	none	NaN	NaN
126	8	52	75	kitchen	sun_acgtpgfybqjmzeyw.tif	46515.079379	46515.337971	46516.027892	7.172622e-01	65	none	NaN	NaN
126	8	53	76	kitchen	sun_acwjdupvyjsugpay.tif	46516.789408	46517.047993	46517.738014	6.755609e-01	66	none	NaN	NaN
126	8	54	66	kitchen	sun_aapllqyqlykszopd.tif	46518.507775	46518.766359	46519.456378	6.505401e-01	56	none	NaN	NaN
126	8	55	107	kitchen	sun_axyyrmzcupyhlivc.tif	46520.226147	46520.484738	46521.174803	7.005817e-01	97	37	46522.546887	1
126	8	56	64	kitchen	sun_aadbddgrdsjugojn.tif	46523.320875	46523.579460	46524.269426	8.256855e-01	54	37	46524.891120	1
126	8	57	101	kitchen	sun_aqeaevwwwjoqhzvl.tif	46525.664863	46525.923451	46526.613497	6.922414e-01	91	none	NaN	NaN
126	8	58	79	kitchen	sun_admlmbcdswaszruo.tif	46527.383228	46527.641823	46528.331793	7.256024e-01	69	none	NaN	NaN
126	8	59	61	kitchen	labelme_brsyyvweiuaazfr.tif	46529.093257	46529.351851	46530.041891	7.589635e-01	51	none	NaN	NaN
126	8	60	92	kitchen	sun_ahpczsiumwwocjkv.tif	46530.811628	46531.070221	46531.760233	7.589635e-01	82	none	NaN	NaN
126	8	61	63	kitchen	labelme_rykdqxenmhulbdn.tif	46532.529997	46532.788585	46533.478502	7.339427e-01	53	none	NaN	NaN
126	8	62	93	kitchen	sun_ahspylgoovwmwvgk.tif	46534.240027	46534.498612	46535.188743	7.256024e-01	83	none	NaN	NaN
126	8	63	106	kitchen	sun_awcpdzzznmweyyhv.tif	46535.958391	46536.216987	46536.906981	6.922414e-01	96	none	NaN	NaN
126	8	64	83	kitchen	sun_aeqdocilnnpuvuhx.tif	46537.668421	46537.927007	46538.617007	6.839012e-01	73	none	NaN	NaN
126	8	65	70	kitchen	sun_abdxkyyxwfskuaqb.tif	46539.386789	46539.645378	46540.335600	7.005817e-01	60	none	NaN	NaN
126	8	66	84	kitchen	sun_aexklacwqwezaorf.tif	46541.105159	46541.363746	46542.053723	7.756440e-01	74	none	NaN	NaN
126	8	67	78	kitchen	sun_adgqasybjyktddhj.tif	46542.815189	46543.073775	46543.763760	7.923245e-01	68	none	NaN	NaN
126	8	68	77	kitchen	sun_acxkpeoqbwcxfvip.tif	46544.525215	46544.783804	46545.473874	7.839843e-01	67	none	NaN	NaN
126	8	69	74	kitchen	sun_acfmftudsenhrfhy.tif	46546.243585	46546.502174	46547.192228	8.090050e-01	64	none	NaN	NaN
126	8	70	94	kitchen	sun_ahywdevtimnqcsln.tif	46547.961950	46548.220542	46548.910483	7.089219e-01	84	37	46550.763056	0
126	8	71	95	kitchen	sun_aixorpehvfykdynp.tif	46551.540494	46551.799086	46552.489010	6.672206e-01	85	39	46553.667096	1
126	8	72	73	kitchen	sun_abrcnpqqhmjwekyf.tif	46554.443368	46554.701962	46555.392009	8.006648e-01	63	37	46556.547080	1
126	8	73	88	kitchen	sun_agubuxuukhzyzpdp.tif	46557.321215	46557.579813	46558.269844	8.173453e-01	78	none	NaN	NaN
126	8	74	98	kitchen	sun_akchetnepxlcxhsu.tif	46559.039586	46559.298182	46559.988101	8.006648e-01	88	none	NaN	NaN
126	8	75	80	kitchen	sun_aegoxogugdkwpmpj.tif	46560.749616	46561.008206	46561.698178	6.672206e-01	70	39	46562.955177	1
126	8	76	65	kitchen	sun_aamedkxepzlwuxes.tif	46563.727568	46563.986156	46564.676110	7.673037e-01	55	none	NaN	NaN
126	8	77	103	kitchen	sun_aunzlwrbjumxhwdj.tif	46565.437593	46565.696183	46566.386145	7.422830e-01	93	none	NaN	NaN
126	8	78	86	kitchen	sun_aggjlwcdjsjcaemh.tif	46567.147620	46567.406213	46568.096219	8.090050e-01	76	none	NaN	NaN
126	8	79	71	kitchen	sun_abftihopvusyfakt.tif	46568.857652	46569.116238	46569.806265	7.422830e-01	61	none	NaN	NaN
126	8	80	81	kitchen	sun_aehawpgmrlhlvcow.tif	46570.576020	46570.834608	46571.524631	8.340258e-01	71	none	NaN	NaN
126	8	81	96	kitchen	sun_ajcbwwvdlsvjyzje.tif	46572.294383	46572.552971	46573.243005	6.588804e-01	86	none	NaN	NaN
126	8	82	102	kitchen	sun_auaiucuqpdausiva.tif	46574.004413	46574.263003	46574.953046	6.922414e-01	92	none	NaN	NaN
126	8	83	62	kitchen	labelme_kxvouciolcpqplr.tif	46575.722784	46575.981370	46576.671322	7.339427e-01	52	none	NaN	NaN
126	8	84	108	kitchen	sun_aymvwlarqodbwuoc.tif	46577.432812	46577.691401	46578.381328	6.588804e-01	98	none	NaN	NaN
126	8	85	72	kitchen	sun_abpwyqmlzafvklqo.tif	46579.142840	46579.401430	46580.091558	8.173453e-01	62	none	NaN	NaN
126	8	86	87	kitchen	sun_agorklincwxrdtga.tif	46580.861209	46581.119794	46581.809870	7.339427e-01	77	none	NaN	NaN
126	8	87	90	kitchen	sun_ahdycvpopffkzzsu.tif	46582.579572	46582.838164	46583.528274	7.923245e-01	80	none	NaN	NaN
126	8	88	82	kitchen	sun_aenotlpyftoioydp.tif	46584.297935	46584.556533	46585.246610	6.839012e-01	72	none	NaN	NaN
126	8	89	100	kitchen	sun_amjjdeyrggfqgmom.tif	46586.016314	46586.274905	46586.964944	7.172622e-01	90	39	46588.683122	1
126	8	90	67	kitchen	sun_aarfiyshqohlwkmo.tif	46589.461391	46589.719978	46590.409943	7.089219e-01	57	none	NaN	NaN
126	8	91	104	kitchen	sun_auticobqsbwgoppi.tif	46591.179765	46591.438351	46592.128442	8.090050e-01	94	none	NaN	NaN
126	8	92	110	kitchen	sun_azmutvzbxypaceni.tif	46592.898130	46593.156719	46593.846750	7.673037e-01	100	none	NaN	NaN
126	8	93	105	kitchen	sun_avszsnwsbuqfgzbn.tif	46594.616500	46594.875088	46595.565147	8.173453e-01	95	none	NaN	NaN
126	8	94	97	kitchen	sun_ajkqhtgcbgpcwrwn.tif	46596.334863	46596.593456	46597.283492	8.340258e-01	87	none	NaN	NaN
126	8	95	85	kitchen	sun_afuyedyxivkhecmu.tif	46598.053236	46598.311823	46599.001815	8.340258e-01	75	none	NaN	NaN
126	8	96	89	kitchen	sun_agzzivivdpnawacl.tif	46599.771601	46600.030192	46600.720129	7.923245e-01	79	none	NaN	NaN
126	8	97	91	kitchen	sun_ahljzhgcdpomplvg.tif	46601.481631	46601.740222	46602.430269	6.672206e-01	81	none	NaN	NaN
126	8	98	99	kitchen	sun_akcjzhbbjlbogpdi.tif	46603.200000	46603.458591	46604.148555	6.505401e-01	89	none	NaN	NaN
126	8	99	68	kitchen	sun_aaxxjlsuzvqlgylf.tif	46604.910029	46605.168619	46605.858554	6.755609e-01	58	none	NaN	NaN
126	8	100	69	kitchen	sun_abdenxonkemggwsq.tif	46606.620053	46606.878642	46607.568645	6.505401e-01	59	none	NaN	NaN
126	9	1	11	bathroom	labelme_sfxiulhjbhlyiyt.tif	46615.120143	46615.378731	46616.027068	7.756440e-01	1	none	NaN	NaN
126	9	2	24	bathroom	sun_agrwbmhcpmfuwmsg.tif	46616.788462	46617.047052	46617.695328	8.507063e-01	14	none	NaN	NaN
126	9	3	60	bathroom	sun_azqyogdvyhahyram.tif	46618.456777	46618.715366	46619.363631	7.005817e-01	50	none	NaN	NaN
126	9	4	19	bathroom	sun_aclfzgynxzxlbepz.tif	46620.125097	46620.383690	46621.031972	7.923245e-01	9	none	NaN	NaN
126	9	5	14	bathroom	sun_abapwbhyhkfixyex.tif	46621.793418	46622.052012	46622.700409	8.173453e-01	4	none	NaN	NaN
126	9	6	15	bathroom	sun_abjtwfukuwddzted.tif	46623.470079	46623.728667	46624.376899	6.922414e-01	5	39	46625.227244	1
126	9	7	21	bathroom	sun_aggnnqpdorgxpvce.tif	46625.997586	46626.256174	46626.904393	7.506232e-01	11	none	NaN	NaN
126	9	8	38	bathroom	sun_anhioqovhscjqqwb.tif	46627.665902	46627.924492	46628.572905	6.505401e-01	28	none	NaN	NaN
126	9	9	44	bathroom	sun_apkruvsevgegsdwp.tif	46629.342562	46629.601156	46630.249514	6.588804e-01	34	none	NaN	NaN
126	9	10	56	bathroom	sun_awnqiikzaispgmwo.tif	46631.019223	46631.277818	46631.926081	6.588804e-01	46	none	NaN	NaN
126	9	11	16	bathroom	sun_acduarbnmmoglmiv.tif	46632.687542	46632.946136	46633.594422	8.256855e-01	6	none	NaN	NaN
126	9	12	45	bathroom	sun_apkxzenqapsujocq.tif	46634.355865	46634.614455	46635.262746	8.006648e-01	35	none	NaN	NaN
126	9	13	18	bathroom	sun_acgyywnybuveqsro.tif	46636.024183	46636.282775	46636.931189	8.423661e-01	8	none	NaN	NaN
126	9	14	20	bathroom	sun_afcoljnjfoxjtgja.tif	46637.700846	46637.959431	46638.607792	7.756440e-01	10	37	46639.786999	1
126	9	15	49	bathroom	sun_asfwthctfqerjvxr.tif	46640.562012	46640.820599	46641.469015	8.090050e-01	39	none	NaN	NaN
126	9	16	31	bathroom	sun_akiytfaagpdsphgz.tif	46642.238671	46642.497265	46643.145603	7.589635e-01	21	none	NaN	NaN
126	9	17	17	bathroom	sun_acegryoqftbzowsg.tif	46643.915329	46644.173926	46644.822264	7.422830e-01	7	none	NaN	NaN
126	9	18	54	bathroom	sun_auzqhkafidnkrwmo.tif	46645.591995	46645.850582	46646.498941	8.507063e-01	44	none	NaN	NaN
126	9	19	50	bathroom	sun_aspsyogrekjtfozg.tif	46647.268657	46647.527240	46648.175659	8.173453e-01	40	none	NaN	NaN
126	9	20	34	bathroom	sun_alkosphxlxwjwgjd.tif	46648.945314	46649.203903	46649.852161	7.339427e-01	24	37	46650.883124	1
126	9	21	53	bathroom	sun_ausgutylgojavyoq.tif	46651.656337	46651.914926	46652.563335	6.839012e-01	43	none	NaN	NaN
126	9	22	13	bathroom	sun_aavhrsfjbserjtht.tif	46653.332993	46653.591582	46654.239984	6.672206e-01	3	none	NaN	NaN
126	9	23	52	bathroom	sun_aunuadmjocsddsrl.tif	46655.009650	46655.268248	46655.916597	6.505401e-01	42	none	NaN	NaN
126	9	24	12	bathroom	sun_aapitsgbtktqubfy.tif	46656.686318	46656.944906	46657.593288	7.589635e-01	2	none	NaN	NaN
126	9	25	39	bathroom	sun_anryaplzeujmzfkd.tif	46658.362976	46658.621567	46659.269959	7.339427e-01	29	none	NaN	NaN
126	9	26	29	bathroom	sun_ahqjwnzgolcaoidx.tif	46660.039641	46660.298228	46660.946565	7.089219e-01	19	none	NaN	NaN
126	9	27	26	bathroom	sun_ahaulkltgpkeeemi.tif	46661.716302	46661.974892	46662.623281	6.672206e-01	16	37	46663.266875	1
126	9	28	51	bathroom	sun_atstyziqcmkahyxk.tif	46664.043602	46664.302195	46664.950419	7.089219e-01	41	none	NaN	NaN
126	9	29	41	bathroom	sun_aoybiabnpadelefl.tif	46665.711923	46665.970516	46666.618912	7.839843e-01	31	none	NaN	NaN
126	9	30	28	bathroom	sun_ahijqszoswveeyji.tif	46667.388587	46667.647175	46668.295476	7.422830e-01	18	none	NaN	NaN
126	9	31	57	bathroom	sun_axldvoqbuvuggfmq.tif	46669.056902	46669.315494	46669.963753	7.923245e-01	47	none	NaN	NaN
126	9	32	32	bathroom	sun_aleqenyvunhactkl.tif	46670.725222	46670.983819	46671.632199	7.005817e-01	22	39	46672.515226	1
126	9	33	25	bathroom	sun_agyqfjcfkdcydepw.tif	46673.286095	46673.544683	46674.193129	8.006648e-01	15	none	NaN	NaN
126	9	34	30	bathroom	sun_ajlawzvmubibwbpy.tif	46674.962753	46675.221345	46675.869717	8.256855e-01	20	none	NaN	NaN
126	9	35	58	bathroom	sun_axxbkopsgyouuebh.tif	46676.639417	46676.898009	46677.546279	7.506232e-01	48	none	NaN	NaN
126	9	36	48	bathroom	sun_aqrpegblszgcoujh.tif	46678.307740	46678.566329	46679.214658	7.673037e-01	38	none	NaN	NaN
126	9	37	36	bathroom	sun_ambriybtogmepttm.tif	46679.984396	46680.242988	46680.891288	8.256855e-01	26	none	NaN	NaN
126	9	38	33	bathroom	sun_aljolscmmzydegqp.tif	46681.661058	46681.919645	46682.567888	7.673037e-01	23	none	NaN	NaN
126	9	39	42	bathroom	sun_apeeialkgkuxddgh.tif	46683.329376	46683.587962	46684.236304	7.839843e-01	32	none	NaN	NaN
126	9	40	55	bathroom	sun_avhrdrntsqrjzccq.tif	46685.006037	46685.264626	46685.912985	6.755609e-01	45	37	46687.427116	1
126	9	41	46	bathroom	sun_apmqjbnwghzuhhzh.tif	46688.200868	46688.459461	46689.107743	6.839012e-01	36	none	NaN	NaN
126	9	42	22	bathroom	sun_agguqiubmwhqqunb.tif	46689.869188	46690.127775	46690.776143	6.588804e-01	12	none	NaN	NaN
126	9	43	27	bathroom	sun_ahcvzmoyaycdoftf.tif	46691.545845	46691.804440	46692.452764	6.755609e-01	17	none	NaN	NaN
126	9	44	47	bathroom	sun_apynckhmoftszqoq.tif	46693.222514	46693.481100	46694.129356	6.839012e-01	37	none	NaN	NaN
126	9	45	59	bathroom	sun_axyrejkiiaqiurjk.tif	46694.899169	46695.157761	46695.805991	7.422830e-01	49	none	NaN	NaN
126	9	46	35	bathroom	sun_alotolagknyrgtsk.tif	46696.567493	46696.826086	46697.474437	6.672206e-01	25	37	46698.499116	1
126	9	47	40	bathroom	sun_aofnryafpsjimzsb.tif	46699.270168	46699.528749	46700.177152	7.089219e-01	30	39	46701.115120	1
126	9	48	23	bathroom	sun_aghyqhbptboemmoq.tif	46701.889430	46702.148016	46702.796277	7.839843e-01	13	none	NaN	NaN
126	9	49	43	bathroom	sun_apjevzvycyhuqghb.tif	46703.557748	46703.816338	46704.464635	6.672206e-01	33	none	NaN	NaN
126	9	50	37	bathroom	sun_amzlamotzwfkwjco.tif	46705.234403	46705.492996	46706.141213	8.090050e-01	27	none	NaN	NaN
126	9	51	26	bathroom	sun_ahaulkltgpkeeemi.tif	46706.902732	46707.161318	46707.809663	7.589635e-01	16	none	NaN	NaN
126	9	52	56	bathroom	sun_awnqiikzaispgmwo.tif	46708.579391	46708.837978	46709.486392	8.006648e-01	46	none	NaN	NaN
126	9	53	15	bathroom	sun_abjtwfukuwddzted.tif	46710.256050	46710.514638	46711.162961	8.090050e-01	5	39	46712.515181	1
126	9	54	14	bathroom	sun_abapwbhyhkfixyex.tif	46713.292390	46713.550983	46714.199211	7.923245e-01	4	none	NaN	NaN
126	9	55	58	bathroom	sun_axxbkopsgyouuebh.tif	46714.960704	46715.219300	46715.867721	7.256024e-01	48	none	NaN	NaN
126	9	56	53	bathroom	sun_ausgutylgojavyoq.tif	46716.629025	46716.887618	46717.536019	7.589635e-01	43	none	NaN	NaN
126	9	57	50	bathroom	sun_aspsyogrekjtfozg.tif	46718.305693	46718.564283	46719.212494	8.423661e-01	40	none	NaN	NaN
126	9	58	19	bathroom	sun_aclfzgynxzxlbepz.tif	46719.974013	46720.232598	46720.880858	8.340258e-01	9	none	NaN	NaN
126	9	59	46	bathroom	sun_apmqjbnwghzuhhzh.tif	46721.650669	46721.909260	46722.557487	7.673037e-01	36	none	NaN	NaN
126	9	60	18	bathroom	sun_acgyywnybuveqsro.tif	46723.318990	46723.577576	46724.225932	7.005817e-01	8	none	NaN	NaN
126	9	61	16	bathroom	sun_acduarbnmmoglmiv.tif	46724.995651	46725.254241	46725.902625	7.923245e-01	6	none	NaN	NaN
126	9	62	49	bathroom	sun_asfwthctfqerjvxr.tif	46726.672316	46726.930896	46727.579135	7.256024e-01	39	none	NaN	NaN
126	9	63	28	bathroom	sun_ahijqszoswveeyji.tif	46728.340637	46728.599222	46729.247465	7.506232e-01	18	none	NaN	NaN
126	9	64	33	bathroom	sun_aljolscmmzydegqp.tif	46730.008945	46730.267534	46730.915773	8.340258e-01	23	none	NaN	NaN
126	9	65	34	bathroom	sun_alkosphxlxwjwgjd.tif	46731.677271	46731.935858	46732.584112	7.172622e-01	24	none	NaN	NaN
126	9	66	45	bathroom	sun_apkxzenqapsujocq.tif	46733.353931	46733.612520	46734.260798	7.339427e-01	35	none	NaN	NaN
126	9	67	35	bathroom	sun_alotolagknyrgtsk.tif	46735.022245	46735.280831	46735.929105	8.340258e-01	25	none	NaN	NaN
126	9	68	24	bathroom	sun_agrwbmhcpmfuwmsg.tif	46736.698906	46736.957505	46737.605787	8.423661e-01	14	none	NaN	NaN
126	9	69	52	bathroom	sun_aunuadmjocsddsrl.tif	46738.367230	46738.625820	46739.274108	7.256024e-01	42	none	NaN	NaN
126	9	70	43	bathroom	sun_apjevzvycyhuqghb.tif	46740.043886	46740.302482	46740.950690	7.172622e-01	33	none	NaN	NaN
126	9	71	29	bathroom	sun_ahqjwnzgolcaoidx.tif	46741.712212	46741.970798	46742.619013	7.172622e-01	19	none	NaN	NaN
126	9	72	20	bathroom	sun_afcoljnjfoxjtgja.tif	46743.380527	46743.639117	46744.287335	7.839843e-01	10	39	46745.819080	1
126	9	73	27	bathroom	sun_ahcvzmoyaycdoftf.tif	46746.592038	46746.850632	46747.498853	8.006648e-01	17	none	NaN	NaN
