subject	block	trial	texture	category	image	trialOnset	itiOnset	trialEnd	iti	EEGtrigger	responseKey	responseTime	accuracy
116	1	1	13	bathroom	sun_aavhrsfjbserjtht.tif	331575.781313	331576.039903	331576.780118	7.506414e-01	3	none	NaN	NaN
116	1	2	49	bathroom	sun_asfwthctfqerjvxr.tif	331577.549729	331577.808322	331578.548390	8.423865e-01	39	none	NaN	NaN
116	1	3	25	bathroom	sun_agyqfjcfkdcydepw.tif	331579.318150	331579.576737	331580.316866	6.588963e-01	15	39	331581.219831	1
116	1	4	38	bathroom	sun_anhioqovhscjqqwb.tif	331581.995805	331582.254392	331582.994444	7.840032e-01	28	none	NaN	NaN
116	1	5	37	bathroom	sun_amzlamotzwfkwjco.tif	331583.764218	331584.022812	331584.763000	7.172796e-01	27	none	NaN	NaN
116	1	6	16	bathroom	sun_acduarbnmmoglmiv.tif	331585.532642	331585.791228	331586.531341	6.922582e-01	6	none	NaN	NaN
116	1	7	41	bathroom	sun_aoybiabnpadelefl.tif	331587.301060	331587.559652	331588.299627	6.922582e-01	31	39	331590.315561	1
116	1	8	55	bathroom	sun_avhrdrntsqrjzccq.tif	331591.088143	331591.346737	331592.086822	6.922582e-01	45	none	NaN	NaN
116	1	9	60	bathroom	sun_azqyogdvyhahyram.tif	331592.856561	331593.115150	331593.855182	7.423009e-01	50	37	331596.059558	1
116	1	10	29	bathroom	sun_ahqjwnzgolcaoidx.tif	331596.835509	331597.094093	331597.834256	7.339605e-01	19	none	NaN	NaN
116	1	11	15	bathroom	sun_abjtwfukuwddzted.tif	331598.603924	331598.862510	331599.602554	8.340460e-01	5	37	331600.627678	1
116	1	12	39	bathroom	sun_anryaplzeujmzfkd.tif	331601.398357	331601.656948	331602.397086	6.755773e-01	29	none	NaN	NaN
116	1	13	17	bathroom	sun_acegryoqftbzowsg.tif	331603.166775	331603.425366	331604.165629	8.090246e-01	7	none	NaN	NaN
116	1	14	30	bathroom	sun_ajlawzvmubibwbpy.tif	331604.935193	331605.193790	331605.933835	8.173651e-01	20	none	NaN	NaN
116	1	15	23	bathroom	sun_aghyqhbptboemmoq.tif	331606.703611	331606.962202	331607.702343	7.840032e-01	13	none	NaN	NaN
116	1	16	53	bathroom	sun_ausgutylgojavyoq.tif	331608.472031	331608.730623	331609.470675	7.506414e-01	43	none	NaN	NaN
116	1	17	59	bathroom	sun_axyrejkiiaqiurjk.tif	331610.232109	331610.490695	331611.230748	7.423009e-01	49	none	NaN	NaN
116	1	18	58	bathroom	sun_axxbkopsgyouuebh.tif	331612.000528	331612.259117	331612.999126	7.339605e-01	48	none	NaN	NaN
116	1	19	14	bathroom	sun_abapwbhyhkfixyex.tif	331613.760605	331614.019194	331614.759222	7.089391e-01	4	none	NaN	NaN
116	1	20	33	bathroom	sun_aljolscmmzydegqp.tif	331615.520684	331615.779269	331616.519314	6.922582e-01	23	none	NaN	NaN
116	1	21	46	bathroom	sun_apmqjbnwghzuhhzh.tif	331617.289104	331617.547691	331618.287827	7.339605e-01	36	39	331619.355940	1
116	1	22	18	bathroom	sun_acgyywnybuveqsro.tif	331620.133582	331620.392176	331621.132219	6.755773e-01	8	none	NaN	NaN
116	1	23	19	bathroom	sun_aclfzgynxzxlbepz.tif	331621.893663	331622.152255	331622.892361	7.756628e-01	9	none	NaN	NaN
116	1	24	11	bathroom	labelme_sfxiulhjbhlyiyt.tif	331623.662081	331623.920672	331624.660692	6.672368e-01	1	39	331625.459658	1
116	1	25	27	bathroom	sun_ahcvzmoyaycdoftf.tif	331626.231296	331626.489884	331627.229874	8.257055e-01	17	none	NaN	NaN
116	1	26	21	bathroom	sun_aggnnqpdorgxpvce.tif	331627.991374	331628.249964	331628.990030	7.589819e-01	11	none	NaN	NaN
116	1	27	42	bathroom	sun_apeeialkgkuxddgh.tif	331629.759790	331630.018379	331630.758366	7.589819e-01	32	none	NaN	NaN
116	1	28	56	bathroom	sun_awnqiikzaispgmwo.tif	331631.519871	331631.778457	331632.518527	8.173651e-01	46	none	NaN	NaN
116	1	29	44	bathroom	sun_apkruvsevgegsdwp.tif	331633.288286	331633.546872	331634.286988	7.423009e-01	34	none	NaN	NaN
116	1	30	20	bathroom	sun_afcoljnjfoxjtgja.tif	331635.056707	331635.315290	331636.055281	7.172796e-01	10	none	NaN	NaN
116	1	31	28	bathroom	sun_ahijqszoswveeyji.tif	331636.816782	331637.075369	331637.815529	8.423865e-01	18	none	NaN	NaN
116	1	32	26	bathroom	sun_ahaulkltgpkeeemi.tif	331638.585197	331638.843788	331639.583787	7.673223e-01	16	none	NaN	NaN
116	1	33	22	bathroom	sun_agguqiubmwhqqunb.tif	331640.345277	331640.603858	331641.343914	7.005986e-01	12	none	NaN	NaN
116	1	34	47	bathroom	sun_apynckhmoftszqoq.tif	331642.105349	331642.363939	331643.104069	7.589819e-01	37	none	NaN	NaN
116	1	35	45	bathroom	sun_apkxzenqapsujocq.tif	331643.873770	331644.132357	331644.872333	8.173651e-01	35	none	NaN	NaN
116	1	36	34	bathroom	sun_alkosphxlxwjwgjd.tif	331645.633847	331645.892439	331646.632510	8.340460e-01	24	none	NaN	NaN
116	1	37	12	bathroom	sun_aapitsgbtktqubfy.tif	331647.402263	331647.660858	331648.400993	8.090246e-01	2	none	NaN	NaN
116	1	38	52	bathroom	sun_aunuadmjocsddsrl.tif	331649.170683	331649.429271	331650.169381	7.089391e-01	42	none	NaN	NaN
116	1	39	50	bathroom	sun_aspsyogrekjtfozg.tif	331650.939108	331651.197692	331651.937751	7.923437e-01	40	none	NaN	NaN
116	1	40	54	bathroom	sun_auzqhkafidnkrwmo.tif	331652.707518	331652.966112	331653.706281	6.505559e-01	44	none	NaN	NaN
116	1	41	31	bathroom	sun_akiytfaagpdsphgz.tif	331654.475942	331654.734531	331655.474694	6.588963e-01	21	39	331656.627805	1
116	1	42	48	bathroom	sun_aqrpegblszgcoujh.tif	331657.403840	331657.662430	331658.402500	8.090246e-01	38	none	NaN	NaN
116	1	43	35	bathroom	sun_alotolagknyrgtsk.tif	331659.172260	331659.430845	331660.170977	8.006842e-01	25	none	NaN	NaN
116	1	44	24	bathroom	sun_agrwbmhcpmfuwmsg.tif	331660.940675	331661.199268	331661.939246	7.256200e-01	14	none	NaN	NaN
116	1	45	40	bathroom	sun_aofnryafpsjimzsb.tif	331662.700754	331662.959342	331663.699528	7.840032e-01	30	none	NaN	NaN
116	1	46	36	bathroom	sun_ambriybtogmepttm.tif	331664.469174	331664.727762	331665.467877	7.756628e-01	26	none	NaN	NaN
116	1	47	57	bathroom	sun_axldvoqbuvuggfmq.tif	331666.237594	331666.496180	331667.236344	8.257055e-01	47	none	NaN	NaN
116	1	48	43	bathroom	sun_apjevzvycyhuqghb.tif	331668.006009	331668.264597	331669.004583	6.505559e-01	33	none	NaN	NaN
116	1	49	32	bathroom	sun_aleqenyvunhactkl.tif	331669.766089	331670.024677	331670.764841	7.005986e-01	22	none	NaN	NaN
116	1	50	51	bathroom	sun_atstyziqcmkahyxk.tif	331671.534506	331671.793094	331672.533153	8.006842e-01	41	none	NaN	NaN
116	1	51	59	bathroom	sun_axyrejkiiaqiurjk.tif	331673.302929	331673.561514	331674.301604	7.005986e-01	49	none	NaN	NaN
116	1	52	11	bathroom	labelme_sfxiulhjbhlyiyt.tif	331675.071343	331675.329928	331676.070095	7.339605e-01	1	none	NaN	NaN
116	1	53	25	bathroom	sun_agyqfjcfkdcydepw.tif	331676.839762	331677.098346	331677.838390	7.506414e-01	15	none	NaN	NaN
116	1	54	16	bathroom	sun_acduarbnmmoglmiv.tif	331678.608181	331678.866772	331679.606916	7.172796e-01	6	none	NaN	NaN
116	1	55	21	bathroom	sun_aggnnqpdorgxpvce.tif	331680.376598	331680.635190	331681.375181	7.589819e-01	11	none	NaN	NaN
116	1	56	51	bathroom	sun_atstyziqcmkahyxk.tif	331682.136676	331682.395269	331683.135407	7.923437e-01	41	none	NaN	NaN
116	1	57	32	bathroom	sun_aleqenyvunhactkl.tif	331683.905091	331684.163687	331684.903794	7.923437e-01	22	none	NaN	NaN
116	1	58	33	bathroom	sun_aljolscmmzydegqp.tif	331685.673510	331685.932100	331686.672270	7.673223e-01	23	none	NaN	NaN
116	1	59	18	bathroom	sun_acgyywnybuveqsro.tif	331687.441933	331687.700510	331688.440561	7.089391e-01	8	none	NaN	NaN
116	1	60	36	bathroom	sun_ambriybtogmepttm.tif	331689.210350	331689.468938	331690.208982	7.840032e-01	26	none	NaN	NaN
116	1	61	13	bathroom	sun_aavhrsfjbserjtht.tif	331690.970425	331691.229015	331691.968990	8.507269e-01	3	none	NaN	NaN
116	1	62	56	bathroom	sun_awnqiikzaispgmwo.tif	331692.730506	331692.989092	331693.729163	7.756628e-01	46	39	331695.987722	1
116	1	63	14	bathroom	sun_abapwbhyhkfixyex.tif	331696.759491	331697.018078	331697.758272	6.588963e-01	4	none	NaN	NaN
116	1	64	45	bathroom	sun_apkxzenqapsujocq.tif	331698.527911	331698.786497	331699.526579	8.090246e-01	35	none	NaN	NaN
116	1	65	38	bathroom	sun_anhioqovhscjqqwb.tif	331700.296331	331700.554914	331701.294938	8.257055e-01	28	37	331703.443740	1
116	1	66	44	bathroom	sun_apkruvsevgegsdwp.tif	331704.216880	331704.475471	331705.215467	8.006842e-01	34	37	331707.003702	1
116	1	67	35	bathroom	sun_alotolagknyrgtsk.tif	331707.778741	331708.037332	331708.777484	6.672368e-01	25	none	NaN	NaN
116	1	68	55	bathroom	sun_avhrdrntsqrjzccq.tif	331709.547163	331709.805749	331710.545976	6.755773e-01	45	39	331711.267647	1
116	1	69	22	bathroom	sun_agguqiubmwhqqunb.tif	331712.041295	331712.299888	331713.040019	6.839177e-01	12	none	NaN	NaN
116	1	70	24	bathroom	sun_agrwbmhcpmfuwmsg.tif	331713.809715	331714.068303	331714.808302	7.423009e-01	14	none	NaN	NaN
116	1	71	47	bathroom	sun_apynckhmoftszqoq.tif	331715.569792	331715.828383	331716.568513	8.340460e-01	37	none	NaN	NaN
116	1	72	53	bathroom	sun_ausgutylgojavyoq.tif	331717.338212	331717.596801	331718.336856	7.589819e-01	43	none	NaN	NaN
116	1	73	15	bathroom	sun_abjtwfukuwddzted.tif	331719.098287	331719.356877	331720.096991	8.006842e-01	5	none	NaN	NaN
116	1	74	28	bathroom	sun_ahijqszoswveeyji.tif	331720.866707	331721.125295	331721.865485	7.256200e-01	18	none	NaN	NaN
116	1	75	26	bathroom	sun_ahaulkltgpkeeemi.tif	331722.635126	331722.893710	331723.633752	8.173651e-01	16	37	331724.627854	1
116	1	76	58	bathroom	sun_axxbkopsgyouuebh.tif	331725.404530	331725.663120	331726.403205	6.839177e-01	48	none	NaN	NaN
116	1	77	17	bathroom	sun_acegryoqftbzowsg.tif	331727.172957	331727.431542	331728.171675	6.839177e-01	7	37	331729.891743	1
116	1	78	54	bathroom	sun_auzqhkafidnkrwmo.tif	331730.668082	331730.926671	331731.666658	8.340460e-01	44	none	NaN	NaN
116	1	79	30	bathroom	sun_ajlawzvmubibwbpy.tif	331732.428161	331732.686748	331733.426826	7.172796e-01	20	none	NaN	NaN
116	1	80	19	bathroom	sun_aclfzgynxzxlbepz.tif	331734.196576	331734.455167	331735.195296	8.257055e-01	9	none	NaN	NaN
116	1	81	60	bathroom	sun_azqyogdvyhahyram.tif	331735.956655	331736.215244	331736.955435	7.256200e-01	50	none	NaN	NaN
116	1	82	50	bathroom	sun_aspsyogrekjtfozg.tif	331737.725072	331737.983661	331738.723787	7.756628e-01	40	none	NaN	NaN
116	1	83	42	bathroom	sun_apeeialkgkuxddgh.tif	331739.493491	331739.752079	331740.492261	7.005986e-01	32	none	NaN	NaN
116	1	84	49	bathroom	sun_asfwthctfqerjvxr.tif	331741.261908	331741.520501	331742.260510	7.673223e-01	39	none	NaN	NaN
116	1	85	27	bathroom	sun_ahcvzmoyaycdoftf.tif	331743.021986	331743.280578	331744.020655	7.005986e-01	17	none	NaN	NaN
116	1	86	12	bathroom	sun_aapitsgbtktqubfy.tif	331744.790406	331745.048992	331745.789053	7.256200e-01	2	none	NaN	NaN
116	1	87	23	bathroom	sun_aghyqhbptboemmoq.tif	331746.558822	331746.817410	331747.557402	6.505559e-01	13	39	331748.579662	1
116	1	88	20	bathroom	sun_afcoljnjfoxjtgja.tif	331749.353256	331749.611841	331750.351955	8.423865e-01	10	none	NaN	NaN
116	1	89	40	bathroom	sun_aofnryafpsjimzsb.tif	331751.121675	331751.380268	331752.120402	6.588963e-01	30	none	NaN	NaN
116	1	90	39	bathroom	sun_anryaplzeujmzfkd.tif	331752.890096	331753.148682	331753.888699	6.839177e-01	29	none	NaN	NaN
116	1	91	43	bathroom	sun_apjevzvycyhuqghb.tif	331754.658513	331754.917100	331755.657074	8.257055e-01	33	none	NaN	NaN
116	1	92	34	bathroom	sun_alkosphxlxwjwgjd.tif	331756.418593	331756.677181	331757.417266	6.672368e-01	24	none	NaN	NaN
116	1	93	41	bathroom	sun_aoybiabnpadelefl.tif	331758.187007	331758.445595	331759.185772	8.423865e-01	31	none	NaN	NaN
116	1	94	46	bathroom	sun_apmqjbnwghzuhhzh.tif	331759.955430	331760.214012	331760.954103	6.755773e-01	36	none	NaN	NaN
116	1	95	57	bathroom	sun_axldvoqbuvuggfmq.tif	331761.723848	331761.982432	331762.722576	8.507269e-01	47	none	NaN	NaN
116	1	96	31	bathroom	sun_akiytfaagpdsphgz.tif	331763.492259	331763.750852	331764.490822	7.506414e-01	21	37	331766.652618	1
116	1	97	37	bathroom	sun_amzlamotzwfkwjco.tif	331767.429495	331767.688089	331768.428106	7.089391e-01	27	none	NaN	NaN
116	1	98	29	bathroom	sun_ahqjwnzgolcaoidx.tif	331769.189573	331769.448162	331770.188255	7.673223e-01	19	none	NaN	NaN
116	1	99	52	bathroom	sun_aunuadmjocsddsrl.tif	331770.957988	331771.216583	331771.956664	7.923437e-01	42	none	NaN	NaN
116	1	100	48	bathroom	sun_aqrpegblszgcoujh.tif	331772.726409	331772.984998	331773.725007	6.672368e-01	38	none	NaN	NaN
116	2	1	62	kitchen	labelme_kxvouciolcpqplr.tif	331783.678928	331783.937516	331784.627474	8.257055e-01	52	none	NaN	NaN
116	2	2	82	kitchen	sun_aenotlpyftoioydp.tif	331785.388949	331785.647544	331786.337634	7.005986e-01	72	none	NaN	NaN
116	2	3	80	kitchen	sun_aegoxogugdkwpmpj.tif	331787.107324	331787.365907	331788.055893	8.257055e-01	70	none	NaN	NaN
116	2	4	84	kitchen	sun_aexklacwqwezaorf.tif	331788.825689	331789.084277	331789.774350	7.506414e-01	74	none	NaN	NaN
116	2	5	88	kitchen	sun_agubuxuukhzyzpdp.tif	331790.544057	331790.802647	331791.492778	7.423009e-01	78	none	NaN	NaN
116	2	6	85	kitchen	sun_afuyedyxivkhecmu.tif	331792.262420	331792.521015	331793.211161	7.923437e-01	75	37	331794.219776	1
116	2	7	73	kitchen	sun_abrcnpqqhmjwekyf.tif	331794.990127	331795.248718	331795.938662	7.589819e-01	63	none	NaN	NaN
116	2	8	99	kitchen	sun_akcjzhbbjlbogpdi.tif	331796.700156	331796.958743	331797.648775	7.256200e-01	89	none	NaN	NaN
116	2	9	75	kitchen	sun_acgtpgfybqjmzeyw.tif	331798.418527	331798.677115	331799.367061	7.589819e-01	65	none	NaN	NaN
116	2	10	92	kitchen	sun_ahpczsiumwwocjkv.tif	331800.136890	331800.395483	331801.085422	7.589819e-01	82	none	NaN	NaN
116	2	11	67	kitchen	sun_aarfiyshqohlwkmo.tif	331801.846917	331802.105512	331802.795446	7.506414e-01	57	37	331803.811515	1
116	2	12	89	kitchen	sun_agzzivivdpnawacl.tif	331804.582962	331804.841551	331805.531503	7.089391e-01	79	none	NaN	NaN
116	2	13	87	kitchen	sun_agorklincwxrdtga.tif	331806.292992	331806.551584	331807.241569	8.340460e-01	77	none	NaN	NaN
116	2	14	70	kitchen	sun_abdxkyyxwfskuaqb.tif	331808.003020	331808.261606	331808.951633	7.005986e-01	60	none	NaN	NaN
116	2	15	69	kitchen	sun_abdenxonkemggwsq.tif	331809.721388	331809.979977	331810.670086	6.505559e-01	59	none	NaN	NaN
116	2	16	66	kitchen	sun_aapllqyqlykszopd.tif	331811.439753	331811.698344	331812.388431	7.339605e-01	56	39	331813.291964	1
116	2	17	104	kitchen	sun_auticobqsbwgoppi.tif	331814.067358	331814.325945	331815.015953	8.006842e-01	94	none	NaN	NaN
116	2	18	90	kitchen	sun_ahdycvpopffkzzsu.tif	331815.785730	331816.044313	331816.734384	6.839177e-01	80	none	NaN	NaN
116	2	19	96	kitchen	sun_ajcbwwvdlsvjyzje.tif	331817.504096	331817.762686	331818.452740	7.005986e-01	86	none	NaN	NaN
116	2	20	65	kitchen	sun_aamedkxepzlwuxes.tif	331819.222463	331819.481052	331820.171048	7.089391e-01	55	none	NaN	NaN
116	2	21	106	kitchen	sun_awcpdzzznmweyyhv.tif	331820.932491	331821.191084	331821.881063	7.673223e-01	96	none	NaN	NaN
116	2	22	83	kitchen	sun_aeqdocilnnpuvuhx.tif	331822.650863	331822.909453	331823.599449	8.423865e-01	73	none	NaN	NaN
116	2	23	64	kitchen	sun_aadbddgrdsjugojn.tif	331824.369229	331824.627818	331825.317747	7.840032e-01	54	none	NaN	NaN
116	2	24	61	kitchen	labelme_brsyyvweiuaazfr.tif	331826.079260	331826.337844	331827.027968	7.172796e-01	51	none	NaN	NaN
116	2	25	107	kitchen	sun_axyyrmzcupyhlivc.tif	331827.797625	331828.056213	331828.746288	7.339605e-01	97	none	NaN	NaN
116	2	26	91	kitchen	sun_ahljzhgcdpomplvg.tif	331829.515991	331829.774583	331830.464697	6.588963e-01	81	none	NaN	NaN
116	2	27	94	kitchen	sun_ahywdevtimnqcsln.tif	331831.234361	331831.492953	331832.183087	7.506414e-01	84	none	NaN	NaN
116	2	28	78	kitchen	sun_adgqasybjyktddhj.tif	331832.952734	331833.211316	331833.901254	7.256200e-01	68	none	NaN	NaN
116	2	29	102	kitchen	sun_auaiucuqpdausiva.tif	331834.662760	331834.921347	331835.611461	6.922582e-01	92	none	NaN	NaN
116	2	30	95	kitchen	sun_aixorpehvfykdynp.tif	331836.381127	331836.639718	331837.329731	6.672368e-01	85	none	NaN	NaN
116	2	31	81	kitchen	sun_aehawpgmrlhlvcow.tif	331838.099496	331838.358084	331839.048199	7.005986e-01	71	39	331839.939766	1
116	2	32	74	kitchen	sun_acfmftudsenhrfhy.tif	331840.710418	331840.969008	331841.659107	8.340460e-01	64	37	331842.739633	1
116	2	33	72	kitchen	sun_abpwyqmlzafvklqo.tif	331843.513188	331843.771777	331844.461925	7.089391e-01	62	none	NaN	NaN
116	2	34	109	kitchen	sun_aypmqwcualkenuoe.tif	331845.231556	331845.490146	331846.180105	7.172796e-01	99	37	331847.179676	1
116	2	35	63	kitchen	labelme_rykdqxenmhulbdn.tif	331847.950917	331848.209507	331848.899585	7.756628e-01	53	none	NaN	NaN
116	2	36	105	kitchen	sun_avszsnwsbuqfgzbn.tif	331849.669289	331849.927879	331850.617959	7.089391e-01	95	none	NaN	NaN
116	2	37	98	kitchen	sun_akchetnepxlcxhsu.tif	331851.387654	331851.646251	331852.336284	8.090246e-01	88	none	NaN	NaN
116	2	38	86	kitchen	sun_aggjlwcdjsjcaemh.tif	331853.106028	331853.364617	331854.054693	6.672368e-01	76	none	NaN	NaN
116	2	39	68	kitchen	sun_aaxxjlsuzvqlgylf.tif	331854.824396	331855.082987	331855.772992	7.589819e-01	58	none	NaN	NaN
116	2	40	71	kitchen	sun_abftihopvusyfakt.tif	331856.542764	331856.801350	331857.491332	8.423865e-01	61	none	NaN	NaN
116	2	41	93	kitchen	sun_ahspylgoovwmwvgk.tif	331858.252792	331858.511384	331859.201414	7.673223e-01	83	37	331860.595517	0
116	2	42	100	kitchen	sun_amjjdeyrggfqgmom.tif	331861.372545	331861.631124	331862.321119	8.173651e-01	90	none	NaN	NaN
116	2	43	108	kitchen	sun_aymvwlarqodbwuoc.tif	331863.090917	331863.349509	331864.039623	6.755773e-01	98	none	NaN	NaN
116	2	44	76	kitchen	sun_acwjdupvyjsugpay.tif	331864.809285	331865.067875	331865.757917	7.840032e-01	66	none	NaN	NaN
116	2	45	97	kitchen	sun_ajkqhtgcbgpcwrwn.tif	331866.527652	331866.786242	331867.476205	7.756628e-01	87	none	NaN	NaN
116	2	46	79	kitchen	sun_admlmbcdswaszruo.tif	331868.237680	331868.496273	331869.186304	8.257055e-01	69	none	NaN	NaN
116	2	47	77	kitchen	sun_acxkpeoqbwcxfvip.tif	331869.956048	331870.214642	331870.904787	7.923437e-01	67	none	NaN	NaN
116	2	48	103	kitchen	sun_aunzlwrbjumxhwdj.tif	331871.674422	331871.933011	331872.623154	7.840032e-01	93	none	NaN	NaN
116	2	49	110	kitchen	sun_azmutvzbxypaceni.tif	331873.392785	331873.651377	331874.341335	8.006842e-01	100	none	NaN	NaN
116	2	50	101	kitchen	sun_aqeaevwwwjoqhzvl.tif	331875.102813	331875.361409	331876.051333	7.172796e-01	91	none	NaN	NaN
116	2	51	88	kitchen	sun_agubuxuukhzyzpdp.tif	331876.812845	331877.071427	331877.761575	8.173651e-01	78	none	NaN	NaN
116	2	52	92	kitchen	sun_ahpczsiumwwocjkv.tif	331878.531208	331878.789799	331879.479847	6.922582e-01	82	39	331880.427686	1
116	2	53	66	kitchen	sun_aapllqyqlykszopd.tif	331881.200517	331881.459110	331882.149126	8.090246e-01	56	none	NaN	NaN
116	2	54	102	kitchen	sun_auaiucuqpdausiva.tif	331882.918888	331883.177477	331883.867547	7.923437e-01	92	37	331884.899671	1
116	2	55	78	kitchen	sun_adgqasybjyktddhj.tif	331885.671611	331885.930201	331886.620346	7.923437e-01	68	none	NaN	NaN
116	2	56	68	kitchen	sun_aaxxjlsuzvqlgylf.tif	331887.389981	331887.648578	331888.338501	6.755773e-01	58	none	NaN	NaN
116	2	57	62	kitchen	labelme_kxvouciolcpqplr.tif	331889.100013	331889.358598	331890.048714	6.588963e-01	52	none	NaN	NaN
116	2	58	100	kitchen	sun_amjjdeyrggfqgmom.tif	331890.818382	331891.076974	331891.766965	6.922582e-01	90	none	NaN	NaN
116	2	59	74	kitchen	sun_acfmftudsenhrfhy.tif	331892.536747	331892.795337	331893.485390	7.172796e-01	64	none	NaN	NaN
116	2	60	109	kitchen	sun_aypmqwcualkenuoe.tif	331894.255117	331894.513709	331895.203768	8.423865e-01	99	none	NaN	NaN
116	2	61	105	kitchen	sun_avszsnwsbuqfgzbn.tif	331895.973485	331896.232075	331896.922062	7.589819e-01	95	none	NaN	NaN
116	2	62	67	kitchen	sun_aarfiyshqohlwkmo.tif	331897.691855	331897.950447	331898.640491	6.839177e-01	57	none	NaN	NaN
116	2	63	83	kitchen	sun_aeqdocilnnpuvuhx.tif	331899.410222	331899.668812	331900.358870	6.672368e-01	73	none	NaN	NaN
116	2	64	90	kitchen	sun_ahdycvpopffkzzsu.tif	331901.128595	331901.387178	331902.077310	6.755773e-01	80	none	NaN	NaN
116	2	65	75	kitchen	sun_acgtpgfybqjmzeyw.tif	331902.846957	331903.105552	331903.795632	7.756628e-01	65	none	NaN	NaN
116	2	66	101	kitchen	sun_aqeaevwwwjoqhzvl.tif	331904.565325	331904.823917	331905.513881	7.756628e-01	91	none	NaN	NaN
116	2	67	82	kitchen	sun_aenotlpyftoioydp.tif	331906.275360	331906.533943	331907.224042	6.839177e-01	72	39	331908.275643	1
116	2	68	97	kitchen	sun_ajkqhtgcbgpcwrwn.tif	331909.053105	331909.311695	331910.001841	7.005986e-01	87	none	NaN	NaN
116	2	69	77	kitchen	sun_acxkpeoqbwcxfvip.tif	331910.771477	331911.030062	331911.720003	7.339605e-01	67	none	NaN	NaN
116	2	70	63	kitchen	labelme_rykdqxenmhulbdn.tif	331912.481499	331912.740092	331913.430059	7.423009e-01	53	none	NaN	NaN
116	2	71	87	kitchen	sun_agorklincwxrdtga.tif	331914.191529	331914.450117	331915.140055	8.340460e-01	77	none	NaN	NaN
116	2	72	84	kitchen	sun_aexklacwqwezaorf.tif	331915.901553	331916.160146	331916.850294	7.673223e-01	74	none	NaN	NaN
116	2	73	94	kitchen	sun_ahywdevtimnqcsln.tif	331917.619927	331917.878516	331918.568666	6.922582e-01	84	37	331919.523723	1
116	2	74	65	kitchen	sun_aamedkxepzlwuxes.tif	331920.297573	331920.556166	331921.246206	8.507269e-01	55	none	NaN	NaN
116	2	75	96	kitchen	sun_ajcbwwvdlsvjyzje.tif	331922.015943	331922.274536	331922.964526	7.506414e-01	86	39	331923.683680	1
116	2	76	106	kitchen	sun_awcpdzzznmweyyhv.tif	331924.460033	331924.718626	331925.408742	8.006842e-01	96	none	NaN	NaN
116	2	77	80	kitchen	sun_aegoxogugdkwpmpj.tif	331926.178400	331926.436993	331927.126985	8.257055e-01	70	37	331927.915779	1
116	2	78	95	kitchen	sun_aixorpehvfykdynp.tif	331928.689224	331928.947811	331929.637948	7.423009e-01	85	none	NaN	NaN
116	2	79	81	kitchen	sun_aehawpgmrlhlvcow.tif	331930.407592	331930.666186	331931.356242	8.173651e-01	71	none	NaN	NaN
116	2	80	76	kitchen	sun_acwjdupvyjsugpay.tif	331932.117636	331932.376210	331933.066204	6.588963e-01	66	39	331933.939856	1
116	2	81	61	kitchen	labelme_brsyyvweiuaazfr.tif	331934.711857	331934.970440	331935.660409	8.090246e-01	51	none	NaN	NaN
116	2	82	98	kitchen	sun_akchetnepxlcxhsu.tif	331936.421884	331936.680474	331937.370620	8.006842e-01	88	none	NaN	NaN
116	2	83	91	kitchen	sun_ahljzhgcdpomplvg.tif	331938.140249	331938.398842	331939.088860	6.505559e-01	81	none	NaN	NaN
116	2	84	72	kitchen	sun_abpwyqmlzafvklqo.tif	331939.858616	331940.117207	331940.807217	6.588963e-01	62	none	NaN	NaN
116	2	85	107	kitchen	sun_axyyrmzcupyhlivc.tif	331941.576988	331941.835575	331942.525506	7.423009e-01	97	39	331943.683725	1
116	2	86	104	kitchen	sun_auticobqsbwgoppi.tif	331944.454839	331944.713428	331945.403497	6.839177e-01	94	none	NaN	NaN
116	2	87	108	kitchen	sun_aymvwlarqodbwuoc.tif	331946.173207	331946.431798	331947.121790	7.256200e-01	98	none	NaN	NaN
116	2	88	93	kitchen	sun_ahspylgoovwmwvgk.tif	331947.891574	331948.150166	331948.840199	8.257055e-01	83	none	NaN	NaN
116	2	89	86	kitchen	sun_aggjlwcdjsjcaemh.tif	331949.609948	331949.868538	331950.558558	8.173651e-01	76	none	NaN	NaN
116	2	90	103	kitchen	sun_aunzlwrbjumxhwdj.tif	331951.328316	331951.586902	331952.277013	6.505559e-01	93	none	NaN	NaN
116	2	91	73	kitchen	sun_abrcnpqqhmjwekyf.tif	331953.046681	331953.305272	331953.995257	7.339605e-01	63	none	NaN	NaN
116	2	92	89	kitchen	sun_agzzivivdpnawacl.tif	331954.765055	331955.023638	331955.713765	7.673223e-01	79	none	NaN	NaN
116	2	93	71	kitchen	sun_abftihopvusyfakt.tif	331956.483419	331956.742006	331957.432158	6.755773e-01	61	none	NaN	NaN
116	2	94	85	kitchen	sun_afuyedyxivkhecmu.tif	331958.201788	331958.460377	331959.150333	8.507269e-01	75	none	NaN	NaN
116	2	95	64	kitchen	sun_aadbddgrdsjugojn.tif	331959.911818	331960.170407	331960.860364	6.672368e-01	54	none	NaN	NaN
116	2	96	110	kitchen	sun_azmutvzbxypaceni.tif	331961.630182	331961.888772	331962.578786	8.423865e-01	100	none	NaN	NaN
116	2	97	70	kitchen	sun_abdxkyyxwfskuaqb.tif	331963.348555	331963.607143	331964.297168	8.340460e-01	60	none	NaN	NaN
116	2	98	99	kitchen	sun_akcjzhbbjlbogpdi.tif	331965.066917	331965.325512	331966.015480	7.840032e-01	89	none	NaN	NaN
116	2	99	79	kitchen	sun_admlmbcdswaszruo.tif	331966.785293	331967.043877	331967.733872	8.090246e-01	69	none	NaN	NaN
116	2	100	69	kitchen	sun_abdenxonkemggwsq.tif	331968.503661	331968.762249	331969.452380	7.256200e-01	59	none	NaN	NaN
116	3	1	27	bathroom	sun_ahcvzmoyaycdoftf.tif	331982.784469	331983.043056	331983.858111	8.257055e-01	17	none	NaN	NaN
116	3	2	21	bathroom	sun_aggnnqpdorgxpvce.tif	331984.619619	331984.878210	331985.693280	6.922582e-01	11	39	331986.571791	1
116	3	3	19	bathroom	sun_aclfzgynxzxlbepz.tif	331987.347321	331987.605909	331988.420978	8.257055e-01	9	none	NaN	NaN
116	3	4	46	bathroom	sun_apmqjbnwghzuhhzh.tif	331989.182473	331989.441063	331990.256169	7.089391e-01	36	none	NaN	NaN
116	3	5	17	bathroom	sun_acegryoqftbzowsg.tif	331991.017623	331991.276212	331992.091314	8.423865e-01	7	none	NaN	NaN
116	3	6	34	bathroom	sun_alkosphxlxwjwgjd.tif	331992.861119	331993.119707	331993.934934	7.256200e-01	24	none	NaN	NaN
116	3	7	18	bathroom	sun_acgyywnybuveqsro.tif	331994.704606	331994.963198	331995.778386	7.089391e-01	8	none	NaN	NaN
116	3	8	38	bathroom	sun_anhioqovhscjqqwb.tif	331996.539762	331996.798339	331997.613423	6.755773e-01	28	none	NaN	NaN
116	3	9	50	bathroom	sun_aspsyogrekjtfozg.tif	331998.374910	331998.633501	331999.448717	8.423865e-01	40	none	NaN	NaN
116	3	10	29	bathroom	sun_ahqjwnzgolcaoidx.tif	332000.218398	332000.476993	332001.292173	7.089391e-01	19	37	332002.491643	1
116	3	11	53	bathroom	sun_ausgutylgojavyoq.tif	332003.263078	332003.521675	332004.336866	6.588963e-01	43	none	NaN	NaN
116	3	12	59	bathroom	sun_axyrejkiiaqiurjk.tif	332005.106575	332005.365166	332006.180327	7.840032e-01	49	none	NaN	NaN
116	3	13	24	bathroom	sun_agrwbmhcpmfuwmsg.tif	332006.950073	332007.208659	332008.023822	8.006842e-01	14	none	NaN	NaN
116	3	14	58	bathroom	sun_axxbkopsgyouuebh.tif	332008.793561	332009.052153	332009.867289	7.506414e-01	48	none	NaN	NaN
116	3	15	31	bathroom	sun_akiytfaagpdsphgz.tif	332010.637055	332010.895644	332011.710742	6.839177e-01	21	none	NaN	NaN
116	3	16	13	bathroom	sun_aavhrsfjbserjtht.tif	332012.472208	332012.730795	332013.545991	7.589819e-01	3	none	NaN	NaN
116	3	17	54	bathroom	sun_auzqhkafidnkrwmo.tif	332014.315701	332014.574290	332015.389516	8.340460e-01	44	37	332016.451812	1
116	3	18	37	bathroom	sun_amzlamotzwfkwjco.tif	332017.226912	332017.485507	332018.300655	7.339605e-01	27	none	NaN	NaN
116	3	19	49	bathroom	sun_asfwthctfqerjvxr.tif	332019.070412	332019.328994	332020.144253	7.172796e-01	39	none	NaN	NaN
116	3	20	45	bathroom	sun_apkxzenqapsujocq.tif	332020.913902	332021.172488	332021.987705	6.755773e-01	35	none	NaN	NaN
116	3	21	39	bathroom	sun_anryaplzeujmzfkd.tif	332022.757398	332023.015981	332023.831084	6.505559e-01	29	none	NaN	NaN
116	3	22	51	bathroom	sun_atstyziqcmkahyxk.tif	332024.600886	332024.859473	332025.674684	7.673223e-01	41	none	NaN	NaN
116	3	23	30	bathroom	sun_ajlawzvmubibwbpy.tif	332026.444377	332026.702970	332027.518155	6.922582e-01	20	none	NaN	NaN
116	3	24	33	bathroom	sun_aljolscmmzydegqp.tif	332028.287872	332028.546457	332029.361696	7.840032e-01	23	none	NaN	NaN
116	3	25	20	bathroom	sun_afcoljnjfoxjtgja.tif	332030.131363	332030.389951	332031.205030	6.755773e-01	10	none	NaN	NaN
116	3	26	60	bathroom	sun_azqyogdvyhahyram.tif	332031.966513	332032.225100	332033.040348	8.090246e-01	50	none	NaN	NaN
116	3	27	22	bathroom	sun_agguqiubmwhqqunb.tif	332033.810007	332034.068597	332034.883702	7.673223e-01	12	39	332036.123818	1
116	3	28	55	bathroom	sun_avhrdrntsqrjzccq.tif	332036.896395	332037.154985	332037.970107	7.172796e-01	45	none	NaN	NaN
116	3	29	52	bathroom	sun_aunuadmjocsddsrl.tif	332038.739887	332038.998479	332039.813732	7.005986e-01	42	none	NaN	NaN
116	3	30	14	bathroom	sun_abapwbhyhkfixyex.tif	332040.583380	332040.841973	332041.657059	7.923437e-01	4	none	NaN	NaN
116	3	31	35	bathroom	sun_alotolagknyrgtsk.tif	332042.418534	332042.677122	332043.492220	7.756628e-01	25	39	332044.475696	1
116	3	32	11	bathroom	labelme_sfxiulhjbhlyiyt.tif	332045.246336	332045.504921	332046.319987	7.339605e-01	1	none	NaN	NaN
116	3	33	48	bathroom	sun_aqrpegblszgcoujh.tif	332047.081487	332047.340075	332048.155305	8.257055e-01	38	none	NaN	NaN
116	3	34	28	bathroom	sun_ahijqszoswveeyji.tif	332048.924978	332049.183565	332049.998628	7.506414e-01	18	39	332051.347624	1
116	3	35	57	bathroom	sun_axldvoqbuvuggfmq.tif	332052.119811	332052.378400	332053.193573	7.923437e-01	47	none	NaN	NaN
116	3	36	26	bathroom	sun_ahaulkltgpkeeemi.tif	332053.963303	332054.221893	332055.037081	7.256200e-01	16	none	NaN	NaN
116	3	37	23	bathroom	sun_aghyqhbptboemmoq.tif	332055.806792	332056.065381	332056.880585	8.173651e-01	13	none	NaN	NaN
116	3	38	47	bathroom	sun_apynckhmoftszqoq.tif	332057.650287	332057.908875	332058.724128	7.423009e-01	37	none	NaN	NaN
116	3	39	42	bathroom	sun_apeeialkgkuxddgh.tif	332059.493777	332059.752366	332060.567417	7.673223e-01	32	39	332061.555763	1
116	3	40	25	bathroom	sun_agyqfjcfkdcydepw.tif	332062.329920	332062.588510	332063.403676	6.839177e-01	15	none	NaN	NaN
116	3	41	32	bathroom	sun_aleqenyvunhactkl.tif	332064.173412	332064.431999	332065.247232	7.506414e-01	22	39	332066.227795	1
116	3	42	12	bathroom	sun_aapitsgbtktqubfy.tif	332067.001210	332067.259802	332068.075051	8.006842e-01	2	none	NaN	NaN
116	3	43	36	bathroom	sun_ambriybtogmepttm.tif	332068.844704	332069.103296	332069.918435	7.005986e-01	26	none	NaN	NaN
116	3	44	44	bathroom	sun_apkruvsevgegsdwp.tif	332070.688200	332070.946791	332071.762046	8.507269e-01	34	none	NaN	NaN
116	3	45	56	bathroom	sun_awnqiikzaispgmwo.tif	332072.531692	332072.790284	332073.605453	6.755773e-01	46	none	NaN	NaN
116	3	46	15	bathroom	sun_abjtwfukuwddzted.tif	332074.375185	332074.633775	332075.448910	8.423865e-01	5	none	NaN	NaN
116	3	47	16	bathroom	sun_acduarbnmmoglmiv.tif	332076.210335	332076.468927	332077.284165	7.005986e-01	6	none	NaN	NaN
116	3	48	43	bathroom	sun_apjevzvycyhuqghb.tif	332078.053825	332078.312419	332079.127618	7.756628e-01	33	none	NaN	NaN
116	3	49	40	bathroom	sun_aofnryafpsjimzsb.tif	332079.897319	332080.155903	332080.971076	6.672368e-01	30	none	NaN	NaN
116	3	50	41	bathroom	sun_aoybiabnpadelefl.tif	332081.740814	332081.999401	332082.814633	6.672368e-01	31	none	NaN	NaN
116	3	51	27	bathroom	sun_ahcvzmoyaycdoftf.tif	332083.584306	332083.842888	332084.658139	8.340460e-01	17	37	332085.603827	1
116	3	52	36	bathroom	sun_ambriybtogmepttm.tif	332086.378738	332086.637330	332087.452405	8.340460e-01	26	none	NaN	NaN
116	3	53	37	bathroom	sun_amzlamotzwfkwjco.tif	332088.213894	332088.472473	332089.287705	8.090246e-01	27	none	NaN	NaN
116	3	54	14	bathroom	sun_abapwbhyhkfixyex.tif	332090.057381	332090.315973	332091.131038	8.006842e-01	4	none	NaN	NaN
116	3	55	40	bathroom	sun_aofnryafpsjimzsb.tif	332091.892533	332092.151124	332092.966165	7.172796e-01	30	none	NaN	NaN
116	3	56	41	bathroom	sun_aoybiabnpadelefl.tif	332093.727685	332093.986276	332094.801520	6.588963e-01	31	none	NaN	NaN
116	3	57	39	bathroom	sun_anryaplzeujmzfkd.tif	332095.571178	332095.829770	332096.645194	6.839177e-01	29	none	NaN	NaN
116	3	58	43	bathroom	sun_apjevzvycyhuqghb.tif	332097.414674	332097.673258	332098.488419	6.922582e-01	33	none	NaN	NaN
116	3	59	60	bathroom	sun_azqyogdvyhahyram.tif	332099.258162	332099.516747	332100.331968	7.005986e-01	50	39	332101.115707	1
116	3	60	38	bathroom	sun_anhioqovhscjqqwb.tif	332101.894108	332102.152693	332102.967789	7.256200e-01	28	none	NaN	NaN
116	3	61	12	bathroom	sun_aapitsgbtktqubfy.tif	332103.729259	332103.987850	332104.802981	7.423009e-01	2	none	NaN	NaN
116	3	62	11	bathroom	labelme_sfxiulhjbhlyiyt.tif	332105.572754	332105.831338	332106.646445	7.756628e-01	1	none	NaN	NaN
116	3	63	30	bathroom	sun_ajlawzvmubibwbpy.tif	332107.407900	332107.666492	332108.481684	8.173651e-01	20	none	NaN	NaN
116	3	64	28	bathroom	sun_ahijqszoswveeyji.tif	332109.251393	332109.509982	332110.325072	6.505559e-01	18	none	NaN	NaN
116	3	65	48	bathroom	sun_aqrpegblszgcoujh.tif	332111.086545	332111.345135	332112.160182	7.506414e-01	38	none	NaN	NaN
116	3	66	25	bathroom	sun_agyqfjcfkdcydepw.tif	332112.921699	332113.180288	332113.995411	7.423009e-01	15	none	NaN	NaN
116	3	67	23	bathroom	sun_aghyqhbptboemmoq.tif	332114.765193	332115.023776	332115.838936	6.922582e-01	13	none	NaN	NaN
116	3	68	16	bathroom	sun_acduarbnmmoglmiv.tif	332116.608681	332116.867267	332117.682373	7.339605e-01	6	none	NaN	NaN
116	3	69	58	bathroom	sun_axxbkopsgyouuebh.tif	332118.443831	332118.702424	332119.517484	8.257055e-01	48	none	NaN	NaN
116	3	70	21	bathroom	sun_aggnnqpdorgxpvce.tif	332120.278986	332120.537575	332121.352785	8.173651e-01	11	none	NaN	NaN
116	3	71	26	bathroom	sun_ahaulkltgpkeeemi.tif	332122.122478	332122.381064	332123.196270	8.090246e-01	16	none	NaN	NaN
116	3	72	34	bathroom	sun_alkosphxlxwjwgjd.tif	332123.965966	332124.224558	332125.039802	6.505559e-01	24	none	NaN	NaN
116	3	73	52	bathroom	sun_aunuadmjocsddsrl.tif	332125.809459	332126.068050	332126.883304	6.672368e-01	42	none	NaN	NaN
116	3	74	15	bathroom	sun_abjtwfukuwddzted.tif	332127.652956	332127.911544	332128.726785	7.589819e-01	5	none	NaN	NaN
116	3	75	13	bathroom	sun_aavhrsfjbserjtht.tif	332129.496441	332129.755033	332130.570078	7.673223e-01	3	none	NaN	NaN
116	3	76	46	bathroom	sun_apmqjbnwghzuhhzh.tif	332131.331597	332131.590186	332132.405281	8.423865e-01	36	none	NaN	NaN
116	3	77	59	bathroom	sun_axyrejkiiaqiurjk.tif	332133.166745	332133.425335	332134.240456	7.923437e-01	49	none	NaN	NaN
116	3	78	42	bathroom	sun_apeeialkgkuxddgh.tif	332135.010237	332135.268831	332136.084007	7.840032e-01	32	none	NaN	NaN
116	3	79	24	bathroom	sun_agrwbmhcpmfuwmsg.tif	332136.853730	332137.112326	332137.927566	8.006842e-01	14	none	NaN	NaN
116	3	80	35	bathroom	sun_alotolagknyrgtsk.tif	332138.697226	332138.955811	332139.771055	7.172796e-01	25	37	332140.875632	1
116	3	81	57	bathroom	sun_axldvoqbuvuggfmq.tif	332141.650146	332141.908738	332142.723769	8.257055e-01	47	none	NaN	NaN
116	3	82	32	bathroom	sun_aleqenyvunhactkl.tif	332143.485303	332143.743891	332144.558940	7.423009e-01	22	none	NaN	NaN
116	3	83	55	bathroom	sun_avhrdrntsqrjzccq.tif	332145.320453	332145.579039	332146.394120	7.923437e-01	45	37	332147.307758	1
116	3	84	22	bathroom	sun_agguqiubmwhqqunb.tif	332148.081517	332148.340108	332149.155216	6.588963e-01	12	none	NaN	NaN
116	3	85	45	bathroom	sun_apkxzenqapsujocq.tif	332149.925010	332150.183602	332150.998810	7.339605e-01	35	none	NaN	NaN
116	3	86	20	bathroom	sun_afcoljnjfoxjtgja.tif	332151.768501	332152.027095	332152.842228	7.840032e-01	10	37	332153.491766	1
116	3	87	19	bathroom	sun_aclfzgynxzxlbepz.tif	332154.262640	332154.521231	332155.336307	7.589819e-01	9	none	NaN	NaN
116	3	88	31	bathroom	sun_akiytfaagpdsphgz.tif	332156.097795	332156.356381	332157.171620	7.589819e-01	21	none	NaN	NaN
116	3	89	47	bathroom	sun_apynckhmoftszqoq.tif	332157.941282	332158.199901	332159.015125	8.507269e-01	37	none	NaN	NaN
116	3	90	17	bathroom	sun_acegryoqftbzowsg.tif	332159.784778	332160.043368	332160.858582	6.839177e-01	7	none	NaN	NaN
116	3	91	33	bathroom	sun_aljolscmmzydegqp.tif	332161.628269	332161.886858	332162.701998	7.256200e-01	23	none	NaN	NaN
116	3	92	51	bathroom	sun_atstyziqcmkahyxk.tif	332163.471761	332163.730352	332164.545519	6.672368e-01	41	37	332165.243686	1
116	3	93	54	bathroom	sun_auzqhkafidnkrwmo.tif	332166.015948	332166.274539	332167.089689	8.173651e-01	44	none	NaN	NaN
116	3	94	18	bathroom	sun_acgyywnybuveqsro.tif	332167.859441	332168.118035	332168.933260	7.005986e-01	8	none	NaN	NaN
116	3	95	50	bathroom	sun_aspsyogrekjtfozg.tif	332169.702929	332169.961522	332170.776554	7.089391e-01	40	none	NaN	NaN
116	3	96	53	bathroom	sun_ausgutylgojavyoq.tif	332171.538083	332171.796675	332172.611844	7.756628e-01	43	none	NaN	NaN
116	3	97	56	bathroom	sun_awnqiikzaispgmwo.tif	332173.381580	332173.640167	332174.455280	8.090246e-01	46	37	332175.131632	1
116	3	98	49	bathroom	sun_asfwthctfqerjvxr.tif	332175.909081	332176.167672	332176.982822	7.589819e-01	39	none	NaN	NaN
116	3	99	44	bathroom	sun_apkruvsevgegsdwp.tif	332177.752573	332178.011168	332178.826223	6.588963e-01	34	none	NaN	NaN
116	3	100	29	bathroom	sun_ahqjwnzgolcaoidx.tif	332179.587727	332179.846310	332180.661425	8.340460e-01	19	none	NaN	NaN
116	4	1	68	kitchen	sun_aaxxjlsuzvqlgylf.tif	332199.832777	332200.091365	332200.789677	7.256200e-01	58	none	NaN	NaN
116	4	2	77	kitchen	sun_acxkpeoqbwcxfvip.tif	332201.559483	332201.818077	332202.516553	7.005986e-01	67	none	NaN	NaN
116	4	3	79	kitchen	sun_admlmbcdswaszruo.tif	332203.286192	332203.544785	332204.243063	8.173651e-01	69	none	NaN	NaN
116	4	4	86	kitchen	sun_aggjlwcdjsjcaemh.tif	332205.004566	332205.263152	332205.961543	7.089391e-01	76	none	NaN	NaN
116	4	5	94	kitchen	sun_ahywdevtimnqcsln.tif	332206.731271	332206.989862	332207.688159	7.005986e-01	84	none	NaN	NaN
116	4	6	95	kitchen	sun_aixorpehvfykdynp.tif	332208.449645	332208.708230	332209.406661	6.755773e-01	85	none	NaN	NaN
116	4	7	75	kitchen	sun_acgtpgfybqjmzeyw.tif	332210.176357	332210.434940	332211.133438	7.506414e-01	65	none	NaN	NaN
116	4	8	88	kitchen	sun_agubuxuukhzyzpdp.tif	332211.903061	332212.161651	332212.859953	6.588963e-01	78	none	NaN	NaN
116	4	9	85	kitchen	sun_afuyedyxivkhecmu.tif	332213.629776	332213.888363	332214.586774	7.840032e-01	75	37	332215.307611	1
116	4	10	104	kitchen	sun_auticobqsbwgoppi.tif	332216.082198	332216.340787	332217.039705	7.589819e-01	94	39	332218.123717	1
116	4	11	72	kitchen	sun_abpwyqmlzafvklqo.tif	332218.901658	332219.160249	332219.858616	7.923437e-01	62	none	NaN	NaN
116	4	12	66	kitchen	sun_aapllqyqlykszopd.tif	332220.628370	332220.886957	332221.585411	7.256200e-01	56	none	NaN	NaN
116	4	13	69	kitchen	sun_abdenxonkemggwsq.tif	332222.355080	332222.613671	332223.311974	8.090246e-01	59	39	332224.723711	1
116	4	14	108	kitchen	sun_aymvwlarqodbwuoc.tif	332225.499859	332225.758452	332226.456928	6.755773e-01	98	none	NaN	NaN
116	4	15	105	kitchen	sun_avszsnwsbuqfgzbn.tif	332227.226573	332227.485164	332228.183645	7.506414e-01	95	none	NaN	NaN
116	4	16	78	kitchen	sun_adgqasybjyktddhj.tif	332228.953283	332229.211872	332229.910260	8.006842e-01	68	none	NaN	NaN
116	4	17	101	kitchen	sun_aqeaevwwwjoqhzvl.tif	332230.679987	332230.938581	332231.636872	8.507269e-01	91	39	332232.603592	1
116	4	18	99	kitchen	sun_akcjzhbbjlbogpdi.tif	332233.374327	332233.632916	332234.331197	6.839177e-01	89	none	NaN	NaN
116	4	19	90	kitchen	sun_ahdycvpopffkzzsu.tif	332235.092697	332235.351284	332236.049636	7.423009e-01	80	none	NaN	NaN
116	4	20	70	kitchen	sun_abdxkyyxwfskuaqb.tif	332236.819402	332237.077988	332237.776324	8.340460e-01	60	none	NaN	NaN
116	4	21	81	kitchen	sun_aehawpgmrlhlvcow.tif	332238.537776	332238.796369	332239.494649	8.006842e-01	71	37	332240.259548	0
116	4	22	106	kitchen	sun_awcpdzzznmweyyhv.tif	332241.031911	332241.290496	332241.988806	8.090246e-01	96	none	NaN	NaN
116	4	23	93	kitchen	sun_ahspylgoovwmwvgk.tif	332242.750282	332243.008875	332243.707343	6.505559e-01	83	none	NaN	NaN
116	4	24	97	kitchen	sun_ajkqhtgcbgpcwrwn.tif	332244.476993	332244.735575	332245.434025	7.172796e-01	87	none	NaN	NaN
116	4	25	91	kitchen	sun_ahljzhgcdpomplvg.tif	332246.203699	332246.462294	332247.160623	7.256200e-01	81	none	NaN	NaN
116	4	26	96	kitchen	sun_ajcbwwvdlsvjyzje.tif	332247.922072	332248.180662	332248.879122	8.090246e-01	86	none	NaN	NaN
116	4	27	62	kitchen	labelme_kxvouciolcpqplr.tif	332249.648777	332249.907367	332250.605641	7.756628e-01	52	none	NaN	NaN
116	4	28	109	kitchen	sun_aypmqwcualkenuoe.tif	332251.367146	332251.625736	332252.324112	7.756628e-01	99	37	332252.979647	1
116	4	29	76	kitchen	sun_acwjdupvyjsugpay.tif	332253.752842	332254.011436	332254.709914	8.090246e-01	66	none	NaN	NaN
116	4	30	87	kitchen	sun_agorklincwxrdtga.tif	332255.479556	332255.738145	332256.436526	8.423865e-01	77	none	NaN	NaN
116	4	31	102	kitchen	sun_auaiucuqpdausiva.tif	332257.206262	332257.464858	332258.163138	8.340460e-01	92	none	NaN	NaN
116	4	32	110	kitchen	sun_azmutvzbxypaceni.tif	332258.924633	332259.183225	332259.881571	7.673223e-01	100	39	332260.635695	1
116	4	33	98	kitchen	sun_akchetnepxlcxhsu.tif	332261.410432	332261.669019	332262.367409	6.672368e-01	88	none	NaN	NaN
116	4	34	100	kitchen	sun_amjjdeyrggfqgmom.tif	332263.137139	332263.395725	332264.094106	7.339605e-01	90	37	332264.891679	1
116	4	35	107	kitchen	sun_axyyrmzcupyhlivc.tif	332265.664643	332265.923228	332266.621663	7.673223e-01	97	none	NaN	NaN
116	4	36	65	kitchen	sun_aamedkxepzlwuxes.tif	332267.391352	332267.649943	332268.348339	8.173651e-01	55	none	NaN	NaN
116	4	37	64	kitchen	sun_aadbddgrdsjugojn.tif	332269.118060	332269.376651	332270.074974	7.339605e-01	54	37	332270.771614	1
116	4	38	89	kitchen	sun_agzzivivdpnawacl.tif	332271.545468	332271.804054	332272.502453	8.423865e-01	79	none	NaN	NaN
116	4	39	103	kitchen	sun_aunzlwrbjumxhwdj.tif	332273.272173	332273.530768	332274.229115	6.839177e-01	93	none	NaN	NaN
116	4	40	71	kitchen	sun_abftihopvusyfakt.tif	332274.998886	332275.257474	332275.955743	7.423009e-01	61	none	NaN	NaN
116	4	41	83	kitchen	sun_aeqdocilnnpuvuhx.tif	332276.717253	332276.975847	332277.674239	6.505559e-01	73	none	NaN	NaN
116	4	42	73	kitchen	sun_abrcnpqqhmjwekyf.tif	332278.443967	332278.702555	332279.400966	6.505559e-01	63	none	NaN	NaN
116	4	43	84	kitchen	sun_aexklacwqwezaorf.tif	332280.170675	332280.429265	332281.127564	7.172796e-01	74	none	NaN	NaN
116	4	44	92	kitchen	sun_ahpczsiumwwocjkv.tif	332281.889044	332282.147632	332282.846092	7.673223e-01	82	none	NaN	NaN
116	4	45	82	kitchen	sun_aenotlpyftoioydp.tif	332283.615754	332283.874345	332284.572713	8.257055e-01	72	39	332285.251636	1
116	4	46	80	kitchen	sun_aegoxogugdkwpmpj.tif	332286.026475	332286.285066	332286.983531	6.922582e-01	70	none	NaN	NaN
116	4	47	61	kitchen	labelme_brsyyvweiuaazfr.tif	332287.753187	332288.011774	332288.710049	7.089391e-01	51	none	NaN	NaN
116	4	48	63	kitchen	labelme_rykdqxenmhulbdn.tif	332289.471554	332289.730148	332290.428592	8.173651e-01	53	39	332291.587665	0
116	4	49	67	kitchen	sun_aarfiyshqohlwkmo.tif	332292.366086	332292.624675	332293.322976	7.005986e-01	57	none	NaN	NaN
116	4	50	74	kitchen	sun_acfmftudsenhrfhy.tif	332294.084457	332294.343049	332295.041376	7.423009e-01	64	none	NaN	NaN
116	4	51	91	kitchen	sun_ahljzhgcdpomplvg.tif	332295.811166	332296.069758	332296.768100	7.923437e-01	81	none	NaN	NaN
116	4	52	85	kitchen	sun_afuyedyxivkhecmu.tif	332297.529536	332297.788122	332298.486493	8.257055e-01	75	none	NaN	NaN
116	4	53	78	kitchen	sun_adgqasybjyktddhj.tif	332299.256245	332299.514835	332300.213280	6.755773e-01	68	none	NaN	NaN
116	4	54	92	kitchen	sun_ahpczsiumwwocjkv.tif	332300.982954	332301.241544	332301.939994	6.588963e-01	82	none	NaN	NaN
116	4	55	87	kitchen	sun_agorklincwxrdtga.tif	332302.701324	332302.959914	332303.658269	8.257055e-01	77	none	NaN	NaN
116	4	56	102	kitchen	sun_auaiucuqpdausiva.tif	332304.428029	332304.686618	332305.384891	7.256200e-01	92	none	NaN	NaN
116	4	57	66	kitchen	sun_aapllqyqlykszopd.tif	332306.146425	332306.404991	332307.103499	8.006842e-01	56	37	332308.139705	0
116	4	58	106	kitchen	sun_awcpdzzznmweyyhv.tif	332308.915809	332309.174399	332309.872781	7.089391e-01	96	none	NaN	NaN
116	4	59	64	kitchen	sun_aadbddgrdsjugojn.tif	332310.642523	332310.901114	332311.599501	7.089391e-01	54	none	NaN	NaN
116	4	60	80	kitchen	sun_aegoxogugdkwpmpj.tif	332312.369230	332312.627822	332313.326311	6.672368e-01	70	none	NaN	NaN
116	4	61	73	kitchen	sun_abrcnpqqhmjwekyf.tif	332314.095944	332314.354531	332315.052845	7.673223e-01	63	none	NaN	NaN
116	4	62	105	kitchen	sun_avszsnwsbuqfgzbn.tif	332315.814309	332316.072892	332316.771286	7.423009e-01	95	none	NaN	NaN
116	4	63	62	kitchen	labelme_kxvouciolcpqplr.tif	332317.541020	332317.799610	332318.497956	7.172796e-01	52	none	NaN	NaN
116	4	64	89	kitchen	sun_agzzivivdpnawacl.tif	332319.267732	332319.526321	332320.224713	6.672368e-01	79	none	NaN	NaN
116	4	65	103	kitchen	sun_aunzlwrbjumxhwdj.tif	332320.994442	332321.253024	332321.951308	8.257055e-01	93	37	332322.867707	1
116	4	66	108	kitchen	sun_aymvwlarqodbwuoc.tif	332323.638729	332323.897314	332324.595751	8.423865e-01	98	none	NaN	NaN
116	4	67	72	kitchen	sun_abpwyqmlzafvklqo.tif	332325.365438	332325.624026	332326.322425	7.589819e-01	62	none	NaN	NaN
116	4	68	70	kitchen	sun_abdxkyyxwfskuaqb.tif	332327.092145	332327.350739	332328.049152	6.922582e-01	60	none	NaN	NaN
116	4	69	68	kitchen	sun_aaxxjlsuzvqlgylf.tif	332328.818795	332329.077446	332329.775765	6.755773e-01	58	37	332330.483636	1
116	4	70	110	kitchen	sun_azmutvzbxypaceni.tif	332331.254599	332331.513192	332332.211599	7.506414e-01	100	none	NaN	NaN
116	4	71	107	kitchen	sun_axyyrmzcupyhlivc.tif	332332.981311	332333.239904	332333.938180	6.922582e-01	97	none	NaN	NaN
116	4	72	97	kitchen	sun_ajkqhtgcbgpcwrwn.tif	332334.699681	332334.958273	332335.656657	7.339605e-01	87	none	NaN	NaN
116	4	73	65	kitchen	sun_aamedkxepzlwuxes.tif	332336.426388	332336.684983	332337.383319	7.589819e-01	55	39	332338.499765	1
116	4	74	99	kitchen	sun_akcjzhbbjlbogpdi.tif	332339.270874	332339.529466	332340.227734	6.839177e-01	89	none	NaN	NaN
116	4	75	94	kitchen	sun_ahywdevtimnqcsln.tif	332340.989246	332341.247834	332341.946181	7.840032e-01	84	none	NaN	NaN
116	4	76	83	kitchen	sun_aeqdocilnnpuvuhx.tif	332342.707612	332342.966207	332343.664656	8.340460e-01	73	none	NaN	NaN
116	4	77	86	kitchen	sun_aggjlwcdjsjcaemh.tif	332344.434325	332344.692911	332345.391363	6.672368e-01	76	none	NaN	NaN
116	4	78	95	kitchen	sun_aixorpehvfykdynp.tif	332346.161033	332346.419632	332347.117970	7.589819e-01	85	none	NaN	NaN
116	4	79	74	kitchen	sun_acfmftudsenhrfhy.tif	332347.887743	332348.146333	332348.844719	7.589819e-01	64	none	NaN	NaN
116	4	80	77	kitchen	sun_acxkpeoqbwcxfvip.tif	332349.614453	332349.873041	332350.571344	7.756628e-01	67	none	NaN	NaN
116	4	81	79	kitchen	sun_admlmbcdswaszruo.tif	332351.341167	332351.599750	332352.298241	7.923437e-01	69	none	NaN	NaN
116	4	82	84	kitchen	sun_aexklacwqwezaorf.tif	332353.067876	332353.326460	332354.024881	8.507269e-01	74	none	NaN	NaN
116	4	83	88	kitchen	sun_agubuxuukhzyzpdp.tif	332354.794586	332355.053173	332355.751473	7.923437e-01	78	none	NaN	NaN
116	4	84	109	kitchen	sun_aypmqwcualkenuoe.tif	332356.512950	332356.771543	332357.469826	8.423865e-01	99	none	NaN	NaN
116	4	85	63	kitchen	labelme_rykdqxenmhulbdn.tif	332358.231322	332358.489909	332359.188308	6.588963e-01	53	none	NaN	NaN
116	4	86	101	kitchen	sun_aqeaevwwwjoqhzvl.tif	332359.958032	332360.216619	332360.915024	8.340460e-01	91	none	NaN	NaN
116	4	87	93	kitchen	sun_ahspylgoovwmwvgk.tif	332361.684738	332361.943327	332362.641755	7.840032e-01	83	none	NaN	NaN
116	4	88	81	kitchen	sun_aehawpgmrlhlvcow.tif	332363.411448	332363.670037	332364.368369	7.339605e-01	71	none	NaN	NaN
116	4	89	90	kitchen	sun_ahdycvpopffkzzsu.tif	332365.129821	332365.388409	332366.086824	8.257055e-01	80	none	NaN	NaN
116	4	90	98	kitchen	sun_akchetnepxlcxhsu.tif	332366.856528	332367.115116	332367.813538	7.756628e-01	88	none	NaN	NaN
116	4	91	69	kitchen	sun_abdenxonkemggwsq.tif	332368.583243	332368.841829	332369.540196	6.922582e-01	59	none	NaN	NaN
116	4	92	96	kitchen	sun_ajcbwwvdlsvjyzje.tif	332370.309945	332370.568539	332371.266969	6.839177e-01	86	none	NaN	NaN
116	4	93	75	kitchen	sun_acgtpgfybqjmzeyw.tif	332372.036663	332372.295248	332372.993698	8.173651e-01	65	none	NaN	NaN
116	4	94	76	kitchen	sun_acwjdupvyjsugpay.tif	332373.763369	332374.021959	332374.720308	7.172796e-01	66	none	NaN	NaN
116	4	95	104	kitchen	sun_auticobqsbwgoppi.tif	332375.490080	332375.748671	332376.447144	8.006842e-01	94	none	NaN	NaN
116	4	96	82	kitchen	sun_aenotlpyftoioydp.tif	332377.216786	332377.475383	332378.173768	7.840032e-01	72	none	NaN	NaN
116	4	97	61	kitchen	labelme_brsyyvweiuaazfr.tif	332378.943500	332379.202088	332379.900535	7.005986e-01	51	none	NaN	NaN
116	4	98	71	kitchen	sun_abftihopvusyfakt.tif	332380.670212	332380.928802	332381.627180	6.588963e-01	61	none	NaN	NaN
116	4	99	67	kitchen	sun_aarfiyshqohlwkmo.tif	332382.396925	332382.655511	332383.353802	7.005986e-01	57	none	NaN	NaN
116	4	100	100	kitchen	sun_amjjdeyrggfqgmom.tif	332384.115286	332384.373878	332385.072356	7.506414e-01	90	none	NaN	NaN
116	5	1	47	bathroom	sun_apynckhmoftszqoq.tif	332399.672362	332399.930954	332400.637744	7.589819e-01	37	none	NaN	NaN
116	5	2	55	bathroom	sun_avhrdrntsqrjzccq.tif	332401.407415	332401.666007	332402.372787	6.505559e-01	45	39	332403.139406	1
116	5	3	45	bathroom	sun_apkxzenqapsujocq.tif	332403.909893	332404.168481	332404.875233	7.423009e-01	35	none	NaN	NaN
116	5	4	41	bathroom	sun_aoybiabnpadelefl.tif	332405.644941	332405.903537	332406.610296	7.089391e-01	31	none	NaN	NaN
116	5	5	21	bathroom	sun_aggnnqpdorgxpvce.tif	332407.380001	332407.638588	332408.345303	7.172796e-01	11	none	NaN	NaN
116	5	6	36	bathroom	sun_ambriybtogmepttm.tif	332409.115048	332409.373634	332410.080439	8.507269e-01	26	none	NaN	NaN
116	5	7	24	bathroom	sun_agrwbmhcpmfuwmsg.tif	332410.850101	332411.108691	332411.815325	6.755773e-01	14	none	NaN	NaN
116	5	8	37	bathroom	sun_amzlamotzwfkwjco.tif	332412.576810	332412.835399	332413.542207	7.005986e-01	27	none	NaN	NaN
116	5	9	20	bathroom	sun_afcoljnjfoxjtgja.tif	332414.311863	332414.570454	332415.277206	7.256200e-01	10	none	NaN	NaN
116	5	10	40	bathroom	sun_aofnryafpsjimzsb.tif	332416.046914	332416.305504	332417.012168	7.506414e-01	30	none	NaN	NaN
116	5	11	42	bathroom	sun_apeeialkgkuxddgh.tif	332417.773627	332418.032212	332418.738926	8.090246e-01	32	none	NaN	NaN
116	5	12	13	bathroom	sun_aavhrsfjbserjtht.tif	332419.508672	332419.767266	332420.473926	8.173651e-01	3	none	NaN	NaN
116	5	13	11	bathroom	labelme_sfxiulhjbhlyiyt.tif	332421.235387	332421.493976	332422.200695	7.256200e-01	1	none	NaN	NaN
116	5	14	34	bathroom	sun_alkosphxlxwjwgjd.tif	332422.970441	332423.229026	332423.935664	6.588963e-01	24	37	332425.411602	1
116	5	15	51	bathroom	sun_atstyziqcmkahyxk.tif	332426.181948	332426.440545	332427.147345	7.256200e-01	41	39	332427.923552	1
116	5	16	32	bathroom	sun_aleqenyvunhactkl.tif	332428.701112	332428.959704	332429.666334	7.840032e-01	22	none	NaN	NaN
116	5	17	26	bathroom	sun_ahaulkltgpkeeemi.tif	332430.427821	332430.686413	332431.393186	7.923437e-01	16	none	NaN	NaN
116	5	18	33	bathroom	sun_aljolscmmzydegqp.tif	332432.162872	332432.421465	332433.128252	7.005986e-01	23	37	332433.883581	1
116	5	19	28	bathroom	sun_ahijqszoswveeyji.tif	332434.657014	332434.915602	332435.622740	7.005986e-01	18	none	NaN	NaN
116	5	20	19	bathroom	sun_aclfzgynxzxlbepz.tif	332436.392058	332436.650655	332437.357341	7.589819e-01	9	none	NaN	NaN
116	5	21	35	bathroom	sun_alotolagknyrgtsk.tif	332438.127118	332438.385705	332439.092522	7.172796e-01	25	none	NaN	NaN
116	5	22	58	bathroom	sun_axxbkopsgyouuebh.tif	332439.862163	332440.120758	332440.827458	8.507269e-01	48	none	NaN	NaN
116	5	23	27	bathroom	sun_ahcvzmoyaycdoftf.tif	332441.588874	332441.847466	332442.554239	7.172796e-01	17	none	NaN	NaN
116	5	24	23	bathroom	sun_aghyqhbptboemmoq.tif	332443.323929	332443.582518	332444.289196	8.090246e-01	13	none	NaN	NaN
116	5	25	56	bathroom	sun_awnqiikzaispgmwo.tif	332445.058978	332445.317570	332446.024226	8.173651e-01	46	none	NaN	NaN
116	5	26	15	bathroom	sun_abjtwfukuwddzted.tif	332446.785693	332447.044283	332447.751112	7.423009e-01	5	none	NaN	NaN
116	5	27	48	bathroom	sun_aqrpegblszgcoujh.tif	332448.520741	332448.779333	332449.485969	8.423865e-01	38	none	NaN	NaN
116	5	28	18	bathroom	sun_acgyywnybuveqsro.tif	332450.247456	332450.506043	332451.212733	8.173651e-01	8	none	NaN	NaN
116	5	29	60	bathroom	sun_azqyogdvyhahyram.tif	332451.974160	332452.232748	332452.939541	8.006842e-01	50	none	NaN	NaN
116	5	30	46	bathroom	sun_apmqjbnwghzuhhzh.tif	332453.709215	332453.967805	332454.674476	6.755773e-01	36	none	NaN	NaN
116	5	31	30	bathroom	sun_ajlawzvmubibwbpy.tif	332455.435924	332455.694513	332456.401229	6.588963e-01	20	none	NaN	NaN
116	5	32	31	bathroom	sun_akiytfaagpdsphgz.tif	332457.162631	332457.421223	332458.127971	8.423865e-01	21	none	NaN	NaN
116	5	33	16	bathroom	sun_acduarbnmmoglmiv.tif	332458.897687	332459.156279	332459.862978	6.672368e-01	6	none	NaN	NaN
116	5	34	29	bathroom	sun_ahqjwnzgolcaoidx.tif	332460.632739	332460.891326	332461.597948	7.089391e-01	19	39	332462.771341	1
116	5	35	49	bathroom	sun_asfwthctfqerjvxr.tif	332463.543954	332463.802544	332464.509260	7.673223e-01	39	none	NaN	NaN
116	5	36	43	bathroom	sun_apjevzvycyhuqghb.tif	332465.279009	332465.537597	332466.244245	8.006842e-01	33	none	NaN	NaN
116	5	37	22	bathroom	sun_agguqiubmwhqqunb.tif	332467.005716	332467.264306	332467.971033	7.005986e-01	12	none	NaN	NaN
116	5	38	17	bathroom	sun_acegryoqftbzowsg.tif	332468.740768	332468.999359	332469.706072	6.672368e-01	7	none	NaN	NaN
116	5	39	44	bathroom	sun_apkruvsevgegsdwp.tif	332470.475814	332470.734410	332471.441088	7.756628e-01	34	37	332473.195556	0
116	5	40	52	bathroom	sun_aunuadmjocsddsrl.tif	332473.970942	332474.229537	332474.936145	8.006842e-01	42	none	NaN	NaN
116	5	41	59	bathroom	sun_axyrejkiiaqiurjk.tif	332475.697657	332475.956246	332476.662904	8.006842e-01	49	none	NaN	NaN
116	5	42	53	bathroom	sun_ausgutylgojavyoq.tif	332477.432707	332477.691300	332478.398013	7.089391e-01	43	none	NaN	NaN
116	5	43	12	bathroom	sun_aapitsgbtktqubfy.tif	332479.167758	332479.426353	332480.133125	6.588963e-01	2	none	NaN	NaN
116	5	44	25	bathroom	sun_agyqfjcfkdcydepw.tif	332480.902813	332481.161401	332481.868191	7.673223e-01	15	none	NaN	NaN
116	5	45	14	bathroom	sun_abapwbhyhkfixyex.tif	332482.637868	332482.896456	332483.603129	7.589819e-01	4	none	NaN	NaN
116	5	46	54	bathroom	sun_auzqhkafidnkrwmo.tif	332484.364574	332484.623163	332485.329775	8.090246e-01	44	none	NaN	NaN
116	5	47	39	bathroom	sun_anryaplzeujmzfkd.tif	332486.091287	332486.349877	332487.056485	7.840032e-01	29	none	NaN	NaN
116	5	48	38	bathroom	sun_anhioqovhscjqqwb.tif	332487.817995	332488.076582	332488.783328	6.755773e-01	28	none	NaN	NaN
116	5	49	57	bathroom	sun_axldvoqbuvuggfmq.tif	332489.553046	332489.811636	332490.518392	7.756628e-01	47	none	NaN	NaN
116	5	50	50	bathroom	sun_aspsyogrekjtfozg.tif	332491.288099	332491.546691	332492.253319	8.090246e-01	40	none	NaN	NaN
116	5	51	50	bathroom	sun_aspsyogrekjtfozg.tif	332493.014808	332493.273396	332493.980111	7.673223e-01	40	none	NaN	NaN
116	5	52	58	bathroom	sun_axxbkopsgyouuebh.tif	332494.741517	332495.000108	332495.706858	8.257055e-01	48	none	NaN	NaN
116	5	53	13	bathroom	sun_aavhrsfjbserjtht.tif	332496.476565	332496.735158	332497.441918	8.257055e-01	3	none	NaN	NaN
116	5	54	28	bathroom	sun_ahijqszoswveeyji.tif	332498.211626	332498.470208	332499.176969	7.423009e-01	18	none	NaN	NaN
116	5	55	31	bathroom	sun_akiytfaagpdsphgz.tif	332499.946671	332500.205263	332500.911930	7.589819e-01	21	none	NaN	NaN
116	5	56	14	bathroom	sun_abapwbhyhkfixyex.tif	332501.673384	332501.931975	332502.638638	8.340460e-01	4	none	NaN	NaN
116	5	57	26	bathroom	sun_ahaulkltgpkeeemi.tif	332503.408435	332503.667028	332504.373776	7.339605e-01	16	none	NaN	NaN
116	5	58	45	bathroom	sun_apkxzenqapsujocq.tif	332505.143490	332505.402076	332506.108906	8.257055e-01	35	none	NaN	NaN
116	5	59	52	bathroom	sun_aunuadmjocsddsrl.tif	332506.878538	332507.137123	332507.843952	7.840032e-01	42	none	NaN	NaN
116	5	60	15	bathroom	sun_abjtwfukuwddzted.tif	332508.613590	332508.872182	332509.578852	8.423865e-01	5	none	NaN	NaN
116	5	61	42	bathroom	sun_apeeialkgkuxddgh.tif	332510.340303	332510.598888	332511.305675	8.340460e-01	32	none	NaN	NaN
116	5	62	32	bathroom	sun_aleqenyvunhactkl.tif	332512.075353	332512.333942	332513.040594	8.340460e-01	22	none	NaN	NaN
116	5	63	34	bathroom	sun_alkosphxlxwjwgjd.tif	332513.802062	332514.060654	332514.767367	7.756628e-01	24	none	NaN	NaN
116	5	64	16	bathroom	sun_acduarbnmmoglmiv.tif	332515.537117	332515.795705	332516.502390	8.257055e-01	6	none	NaN	NaN
116	5	65	44	bathroom	sun_apkruvsevgegsdwp.tif	332517.272168	332517.530756	332518.237476	7.589819e-01	34	none	NaN	NaN
116	5	66	36	bathroom	sun_ambriybtogmepttm.tif	332519.007219	332519.265806	332519.972639	7.506414e-01	26	none	NaN	NaN
116	5	67	27	bathroom	sun_ahcvzmoyaycdoftf.tif	332520.742267	332521.000858	332521.707672	6.839177e-01	17	none	NaN	NaN
116	5	68	33	bathroom	sun_aljolscmmzydegqp.tif	332522.477320	332522.735908	332523.442708	8.173651e-01	23	39	332524.603643	1
116	5	69	49	bathroom	sun_asfwthctfqerjvxr.tif	332525.380201	332525.638783	332526.345406	6.922582e-01	39	none	NaN	NaN
116	5	70	46	bathroom	sun_apmqjbnwghzuhhzh.tif	332527.106910	332527.365493	332528.072239	6.588963e-01	36	39	332528.915535	1
116	5	71	60	bathroom	sun_azqyogdvyhahyram.tif	332529.692797	332529.951395	332530.658050	6.922582e-01	50	37	332531.779487	1
116	5	72	56	bathroom	sun_awnqiikzaispgmwo.tif	332532.553964	332532.812559	332533.519204	8.340460e-01	46	none	NaN	NaN
116	5	73	53	bathroom	sun_ausgutylgojavyoq.tif	332534.280679	332534.539263	332535.245916	7.923437e-01	43	none	NaN	NaN
116	5	74	12	bathroom	sun_aapitsgbtktqubfy.tif	332536.007389	332536.265980	332536.972664	7.923437e-01	2	none	NaN	NaN
116	5	75	38	bathroom	sun_anhioqovhscjqqwb.tif	332537.734098	332537.992688	332538.699426	6.922582e-01	28	none	NaN	NaN
116	5	76	47	bathroom	sun_apynckhmoftszqoq.tif	332539.469148	332539.727743	332540.434458	6.922582e-01	37	none	NaN	NaN
116	5	77	55	bathroom	sun_avhrdrntsqrjzccq.tif	332541.204197	332541.462794	332542.169574	6.839177e-01	45	none	NaN	NaN
116	5	78	29	bathroom	sun_ahqjwnzgolcaoidx.tif	332542.939254	332543.197845	332543.904573	8.423865e-01	19	none	NaN	NaN
116	5	79	20	bathroom	sun_afcoljnjfoxjtgja.tif	332544.674306	332544.932895	332545.639504	7.840032e-01	10	37	332546.515572	1
116	5	80	59	bathroom	sun_axyrejkiiaqiurjk.tif	332547.293564	332547.552157	332548.258927	6.505559e-01	49	none	NaN	NaN
116	5	81	39	bathroom	sun_anryaplzeujmzfkd.tif	332549.028617	332549.287204	332549.993872	7.256200e-01	29	none	NaN	NaN
116	5	82	18	bathroom	sun_acgyywnybuveqsro.tif	332550.755325	332551.013916	332551.720675	7.339605e-01	8	none	NaN	NaN
116	5	83	21	bathroom	sun_aggnnqpdorgxpvce.tif	332552.490380	332552.748970	332553.455644	7.089391e-01	11	none	NaN	NaN
116	5	84	37	bathroom	sun_amzlamotzwfkwjco.tif	332554.225430	332554.484020	332555.190670	7.172796e-01	27	39	332555.931667	1
116	5	85	11	bathroom	labelme_sfxiulhjbhlyiyt.tif	332556.702881	332556.961469	332557.668280	7.339605e-01	1	37	332558.347347	1
116	5	86	35	bathroom	sun_alotolagknyrgtsk.tif	332559.121944	332559.380530	332560.087279	7.506414e-01	25	37	332560.699517	1
116	5	87	30	bathroom	sun_ajlawzvmubibwbpy.tif	332561.474277	332561.732866	332562.439520	7.673223e-01	20	none	NaN	NaN
116	5	88	57	bathroom	sun_axldvoqbuvuggfmq.tif	332563.200988	332563.459576	332564.166306	6.839177e-01	47	none	NaN	NaN
116	5	89	22	bathroom	sun_agguqiubmwhqqunb.tif	332564.936037	332565.194626	332565.901440	6.755773e-01	12	none	NaN	NaN
116	5	90	19	bathroom	sun_aclfzgynxzxlbepz.tif	332566.671091	332566.929677	332567.636360	7.339605e-01	9	none	NaN	NaN
116	5	91	25	bathroom	sun_agyqfjcfkdcydepw.tif	332568.406139	332568.664731	332569.371415	6.672368e-01	15	37	332570.107529	1
116	5	92	43	bathroom	sun_apjevzvycyhuqghb.tif	332570.883599	332571.142182	332571.848917	6.672368e-01	33	none	NaN	NaN
116	5	93	54	bathroom	sun_auzqhkafidnkrwmo.tif	332572.618646	332572.877234	332573.584052	7.756628e-01	44	none	NaN	NaN
116	5	94	51	bathroom	sun_atstyziqcmkahyxk.tif	332574.353700	332574.612290	332575.318916	7.423009e-01	41	none	NaN	NaN
116	5	95	24	bathroom	sun_agrwbmhcpmfuwmsg.tif	332576.080408	332576.338999	332577.045731	6.839177e-01	14	none	NaN	NaN
116	5	96	23	bathroom	sun_aghyqhbptboemmoq.tif	332577.815462	332578.074049	332578.780742	7.005986e-01	13	39	332579.411661	1
116	5	97	40	bathroom	sun_aofnryafpsjimzsb.tif	332580.184472	332580.443064	332581.149890	6.505559e-01	30	none	NaN	NaN
116	5	98	41	bathroom	sun_aoybiabnpadelefl.tif	332581.919519	332582.178117	332582.884920	7.506414e-01	31	none	NaN	NaN
116	5	99	48	bathroom	sun_aqrpegblszgcoujh.tif	332583.654578	332583.913165	332584.619812	7.923437e-01	38	none	NaN	NaN
116	5	100	17	bathroom	sun_acegryoqftbzowsg.tif	332585.381289	332585.639878	332586.346548	8.257055e-01	7	none	NaN	NaN
116	6	1	64	kitchen	sun_aadbddgrdsjugojn.tif	332608.721070	332608.979662	332609.719841	8.423865e-01	54	none	NaN	NaN
116	6	2	81	kitchen	sun_aehawpgmrlhlvcow.tif	332610.489488	332610.748075	332611.488069	7.089391e-01	71	none	NaN	NaN
116	6	3	108	kitchen	sun_aymvwlarqodbwuoc.tif	332612.249562	332612.508156	332613.248247	6.839177e-01	98	none	NaN	NaN
116	6	4	65	kitchen	sun_aamedkxepzlwuxes.tif	332614.017981	332614.276567	332615.016693	8.257055e-01	55	none	NaN	NaN
116	6	5	87	kitchen	sun_agorklincwxrdtga.tif	332615.786397	332616.044985	332616.785135	8.173651e-01	77	none	NaN	NaN
116	6	6	90	kitchen	sun_ahdycvpopffkzzsu.tif	332617.554816	332617.813406	332618.553445	7.506414e-01	80	none	NaN	NaN
116	6	7	99	kitchen	sun_akcjzhbbjlbogpdi.tif	332619.314895	332619.573487	332620.313505	7.673223e-01	89	39	332621.323602	1
116	6	8	93	kitchen	sun_ahspylgoovwmwvgk.tif	332622.100984	332622.359575	332623.099593	7.005986e-01	83	none	NaN	NaN
116	6	9	62	kitchen	labelme_kxvouciolcpqplr.tif	332623.861062	332624.119652	332624.859688	6.672368e-01	52	none	NaN	NaN
116	6	10	69	kitchen	sun_abdenxonkemggwsq.tif	332625.621140	332625.879731	332626.619851	6.839177e-01	59	none	NaN	NaN
116	6	11	98	kitchen	sun_akchetnepxlcxhsu.tif	332627.389559	332627.648147	332628.388313	7.840032e-01	88	none	NaN	NaN
116	6	12	106	kitchen	sun_awcpdzzznmweyyhv.tif	332629.157976	332629.416584	332630.156547	7.923437e-01	96	none	NaN	NaN
116	6	13	109	kitchen	sun_aypmqwcualkenuoe.tif	332630.918052	332631.176641	332631.916780	6.922582e-01	99	none	NaN	NaN
116	6	14	100	kitchen	sun_amjjdeyrggfqgmom.tif	332632.686471	332632.945059	332633.685175	7.172796e-01	90	none	NaN	NaN
116	6	15	89	kitchen	sun_agzzivivdpnawacl.tif	332634.454891	332634.713476	332635.453577	8.257055e-01	79	none	NaN	NaN
116	6	16	103	kitchen	sun_aunzlwrbjumxhwdj.tif	332636.223306	332636.481894	332637.221936	6.922582e-01	93	none	NaN	NaN
116	6	17	78	kitchen	sun_adgqasybjyktddhj.tif	332637.991723	332638.250315	332638.990486	8.340460e-01	68	none	NaN	NaN
116	6	18	68	kitchen	sun_aaxxjlsuzvqlgylf.tif	332639.760144	332640.018730	332640.758800	8.257055e-01	58	none	NaN	NaN
116	6	19	71	kitchen	sun_abftihopvusyfakt.tif	332641.528566	332641.787151	332642.527296	7.089391e-01	61	none	NaN	NaN
116	6	20	105	kitchen	sun_avszsnwsbuqfgzbn.tif	332643.296977	332643.555567	332644.295749	6.505559e-01	95	37	332644.963680	0
116	6	21	73	kitchen	sun_abrcnpqqhmjwekyf.tif	332645.741061	332645.999653	332646.739804	7.589819e-01	63	none	NaN	NaN
116	6	22	67	kitchen	sun_aarfiyshqohlwkmo.tif	332647.509485	332647.768073	332648.508068	7.756628e-01	57	none	NaN	NaN
116	6	23	86	kitchen	sun_aggjlwcdjsjcaemh.tif	332649.269562	332649.528152	332650.268137	8.006842e-01	76	none	NaN	NaN
116	6	24	74	kitchen	sun_acfmftudsenhrfhy.tif	332651.029642	332651.288227	332652.028255	6.588963e-01	64	none	NaN	NaN
116	6	25	66	kitchen	sun_aapllqyqlykszopd.tif	332652.789715	332653.048307	332653.788357	7.172796e-01	56	none	NaN	NaN
116	6	26	95	kitchen	sun_aixorpehvfykdynp.tif	332654.549792	332654.808379	332655.548373	7.589819e-01	85	none	NaN	NaN
116	6	27	70	kitchen	sun_abdxkyyxwfskuaqb.tif	332656.309865	332656.568458	332657.308616	8.340460e-01	60	39	332658.003482	1
116	6	28	75	kitchen	sun_acgtpgfybqjmzeyw.tif	332658.778981	332659.037569	332659.777749	8.423865e-01	65	none	NaN	NaN
116	6	29	94	kitchen	sun_ahywdevtimnqcsln.tif	332660.547399	332660.805981	332661.545975	7.423009e-01	84	none	NaN	NaN
116	6	30	85	kitchen	sun_afuyedyxivkhecmu.tif	332662.307472	332662.566062	332663.306207	7.840032e-01	75	none	NaN	NaN
116	6	31	107	kitchen	sun_axyyrmzcupyhlivc.tif	332664.075890	332664.334479	332665.074622	8.173651e-01	97	none	NaN	NaN
116	6	32	91	kitchen	sun_ahljzhgcdpomplvg.tif	332665.844309	332666.102905	332666.843069	7.256200e-01	81	none	NaN	NaN
116	6	33	96	kitchen	sun_ajcbwwvdlsvjyzje.tif	332667.612726	332667.871318	332668.611490	7.756628e-01	86	39	332669.379303	1
116	6	34	82	kitchen	sun_aenotlpyftoioydp.tif	332670.156914	332670.415503	332671.155698	7.589819e-01	72	37	332672.027630	1
116	6	35	102	kitchen	sun_auaiucuqpdausiva.tif	332672.801199	332673.059791	332673.799887	8.006842e-01	92	39	332674.835502	0
116	6	36	72	kitchen	sun_abpwyqmlzafvklqo.tif	332675.612314	332675.870903	332676.610987	7.256200e-01	62	none	NaN	NaN
116	6	37	84	kitchen	sun_aexklacwqwezaorf.tif	332677.380732	332677.639323	332678.379347	7.673223e-01	74	39	332679.155470	1
116	6	38	101	kitchen	sun_aqeaevwwwjoqhzvl.tif	332679.933264	332680.191851	332680.931856	7.673223e-01	91	none	NaN	NaN
116	6	39	110	kitchen	sun_azmutvzbxypaceni.tif	332681.701681	332681.960270	332682.700242	6.588963e-01	100	none	NaN	NaN
116	6	40	83	kitchen	sun_aeqdocilnnpuvuhx.tif	332683.470099	332683.728690	332684.468662	8.006842e-01	73	none	NaN	NaN
116	6	41	77	kitchen	sun_acxkpeoqbwcxfvip.tif	332685.230178	332685.488769	332686.228858	8.257055e-01	67	none	NaN	NaN
116	6	42	63	kitchen	labelme_rykdqxenmhulbdn.tif	332686.998596	332687.257187	332687.997304	6.505559e-01	53	none	NaN	NaN
116	6	43	80	kitchen	sun_aegoxogugdkwpmpj.tif	332688.767014	332689.025604	332689.765598	7.089391e-01	70	none	NaN	NaN
116	6	44	79	kitchen	sun_admlmbcdswaszruo.tif	332690.527089	332690.785676	332691.525726	7.923437e-01	69	39	332692.907516	0
116	6	45	61	kitchen	labelme_brsyyvweiuaazfr.tif	332693.680209	332693.938802	332694.678810	7.005986e-01	51	none	NaN	NaN
116	6	46	97	kitchen	sun_ajkqhtgcbgpcwrwn.tif	332695.440288	332695.698875	332696.439010	7.089391e-01	87	none	NaN	NaN
116	6	47	88	kitchen	sun_agubuxuukhzyzpdp.tif	332697.208707	332697.467293	332698.207336	7.339605e-01	78	none	NaN	NaN
116	6	48	104	kitchen	sun_auticobqsbwgoppi.tif	332698.968787	332699.227375	332699.967547	7.756628e-01	94	none	NaN	NaN
116	6	49	76	kitchen	sun_acwjdupvyjsugpay.tif	332700.737198	332700.995792	332701.735836	7.589819e-01	66	none	NaN	NaN
116	6	50	92	kitchen	sun_ahpczsiumwwocjkv.tif	332702.497277	332702.755869	332703.495890	7.172796e-01	82	none	NaN	NaN
116	6	51	105	kitchen	sun_avszsnwsbuqfgzbn.tif	332704.257354	332704.515945	332705.256043	8.257055e-01	95	none	NaN	NaN
116	6	52	92	kitchen	sun_ahpczsiumwwocjkv.tif	332706.025774	332706.284358	332707.024339	8.340460e-01	82	none	NaN	NaN
116	6	53	83	kitchen	sun_aeqdocilnnpuvuhx.tif	332707.785846	332708.044440	332708.784537	7.339605e-01	73	none	NaN	NaN
116	6	54	94	kitchen	sun_ahywdevtimnqcsln.tif	332709.554267	332709.812854	332710.552920	8.090246e-01	84	none	NaN	NaN
116	6	55	101	kitchen	sun_aqeaevwwwjoqhzvl.tif	332711.322683	332711.581271	332712.321255	7.005986e-01	91	none	NaN	NaN
116	6	56	81	kitchen	sun_aehawpgmrlhlvcow.tif	332713.082760	332713.341352	332714.081482	6.839177e-01	71	none	NaN	NaN
116	6	57	87	kitchen	sun_agorklincwxrdtga.tif	332714.851179	332715.109768	332715.849944	8.090246e-01	77	none	NaN	NaN
116	6	58	89	kitchen	sun_agzzivivdpnawacl.tif	332716.619598	332716.878181	332717.618322	7.256200e-01	79	none	NaN	NaN
116	6	59	74	kitchen	sun_acfmftudsenhrfhy.tif	332718.388017	332718.646601	332719.386633	8.006842e-01	64	none	NaN	NaN
116	6	60	67	kitchen	sun_aarfiyshqohlwkmo.tif	332720.148093	332720.406680	332721.146848	6.922582e-01	57	none	NaN	NaN
116	6	61	63	kitchen	labelme_rykdqxenmhulbdn.tif	332721.916507	332722.175101	332722.915229	6.672368e-01	53	none	NaN	NaN
116	6	62	84	kitchen	sun_aexklacwqwezaorf.tif	332723.684927	332723.943513	332724.683581	6.588963e-01	74	none	NaN	NaN
116	6	63	103	kitchen	sun_aunzlwrbjumxhwdj.tif	332725.453348	332725.711937	332726.452014	6.922582e-01	93	37	332727.299613	1
116	6	64	91	kitchen	sun_ahljzhgcdpomplvg.tif	332728.072605	332728.331197	332729.071362	7.005986e-01	81	none	NaN	NaN
116	6	65	62	kitchen	labelme_kxvouciolcpqplr.tif	332729.841022	332730.099615	332730.839774	7.423009e-01	52	39	332732.307551	1
116	6	66	106	kitchen	sun_awcpdzzznmweyyhv.tif	332733.085907	332733.344495	332734.084499	6.672368e-01	96	none	NaN	NaN
116	6	67	68	kitchen	sun_aaxxjlsuzvqlgylf.tif	332734.845982	332735.104568	332735.844653	7.506414e-01	58	none	NaN	NaN
116	6	68	65	kitchen	sun_aamedkxepzlwuxes.tif	332736.614398	332736.872991	332737.613118	7.339605e-01	55	none	NaN	NaN
116	6	69	96	kitchen	sun_ajcbwwvdlsvjyzje.tif	332738.382816	332738.641409	332739.381478	7.005986e-01	86	none	NaN	NaN
116	6	70	110	kitchen	sun_azmutvzbxypaceni.tif	332740.151233	332740.409829	332741.149844	8.423865e-01	100	none	NaN	NaN
116	6	71	77	kitchen	sun_acxkpeoqbwcxfvip.tif	332741.911315	332742.169899	332742.910013	8.507269e-01	67	37	332743.763665	0
116	6	72	86	kitchen	sun_aggjlwcdjsjcaemh.tif	332744.538915	332744.797502	332745.537688	7.923437e-01	76	none	NaN	NaN
116	6	73	64	kitchen	sun_aadbddgrdsjugojn.tif	332746.307331	332746.565920	332747.305923	6.755773e-01	54	none	NaN	NaN
116	6	74	76	kitchen	sun_acwjdupvyjsugpay.tif	332748.067409	332748.326000	332749.066014	8.173651e-01	66	none	NaN	NaN
116	6	75	104	kitchen	sun_auticobqsbwgoppi.tif	332749.827487	332750.086076	332750.826220	8.507269e-01	94	none	NaN	NaN
116	6	76	95	kitchen	sun_aixorpehvfykdynp.tif	332751.595900	332751.854490	332752.594587	7.506414e-01	85	none	NaN	NaN
116	6	77	109	kitchen	sun_aypmqwcualkenuoe.tif	332753.364322	332753.622907	332754.363075	8.340460e-01	99	none	NaN	NaN
116	6	78	108	kitchen	sun_aymvwlarqodbwuoc.tif	332755.132739	332755.391327	332756.131354	6.755773e-01	98	37	332756.795618	1
116	6	79	100	kitchen	sun_amjjdeyrggfqgmom.tif	332757.568488	332757.827078	332758.567177	7.589819e-01	90	none	NaN	NaN
116	6	80	99	kitchen	sun_akcjzhbbjlbogpdi.tif	332759.336903	332759.595496	332760.335683	6.588963e-01	89	none	NaN	NaN
116	6	81	70	kitchen	sun_abdxkyyxwfskuaqb.tif	332761.105322	332761.363912	332762.103891	7.172796e-01	60	none	NaN	NaN
116	6	82	75	kitchen	sun_acgtpgfybqjmzeyw.tif	332762.865395	332763.123985	332763.863997	6.672368e-01	65	37	332764.515560	1
116	6	83	90	kitchen	sun_ahdycvpopffkzzsu.tif	332765.292798	332765.551393	332766.291559	6.755773e-01	80	none	NaN	NaN
116	6	84	97	kitchen	sun_ajkqhtgcbgpcwrwn.tif	332767.061219	332767.319811	332768.059888	6.839177e-01	87	none	NaN	NaN
116	6	85	88	kitchen	sun_agubuxuukhzyzpdp.tif	332768.829641	332769.088229	332769.828352	6.505559e-01	78	none	NaN	NaN
116	6	86	80	kitchen	sun_aegoxogugdkwpmpj.tif	332770.598056	332770.856646	332771.596788	8.090246e-01	70	none	NaN	NaN
116	6	87	82	kitchen	sun_aenotlpyftoioydp.tif	332772.366475	332772.625065	332773.365086	7.256200e-01	72	none	NaN	NaN
116	6	88	102	kitchen	sun_auaiucuqpdausiva.tif	332774.126552	332774.385142	332775.125329	7.923437e-01	92	39	332775.835323	1
116	6	89	66	kitchen	sun_aapllqyqlykszopd.tif	332776.612348	332776.870936	332777.611118	7.840032e-01	56	none	NaN	NaN
116	6	90	78	kitchen	sun_adgqasybjyktddhj.tif	332778.380765	332778.639360	332779.379415	8.090246e-01	68	none	NaN	NaN
116	6	91	61	kitchen	labelme_brsyyvweiuaazfr.tif	332780.149182	332780.407772	332781.147785	8.173651e-01	51	none	NaN	NaN
116	6	92	79	kitchen	sun_admlmbcdswaszruo.tif	332781.909257	332782.167848	332782.907934	8.423865e-01	69	37	332784.963315	1
116	6	93	73	kitchen	sun_abrcnpqqhmjwekyf.tif	332785.738048	332785.996639	332786.736809	7.673223e-01	63	none	NaN	NaN
116	6	94	69	kitchen	sun_abdenxonkemggwsq.tif	332787.506470	332787.765056	332788.505168	6.755773e-01	59	none	NaN	NaN
116	6	95	98	kitchen	sun_akchetnepxlcxhsu.tif	332789.274888	332789.533478	332790.273460	7.756628e-01	88	none	NaN	NaN
116	6	96	107	kitchen	sun_axyyrmzcupyhlivc.tif	332791.034964	332791.293553	332792.033671	7.840032e-01	97	none	NaN	NaN
116	6	97	71	kitchen	sun_abftihopvusyfakt.tif	332792.803382	332793.061969	332793.802107	7.506414e-01	61	none	NaN	NaN
116	6	98	85	kitchen	sun_afuyedyxivkhecmu.tif	332794.571799	332794.830387	332795.570371	7.339605e-01	75	none	NaN	NaN
116	6	99	93	kitchen	sun_ahspylgoovwmwvgk.tif	332796.331876	332796.590458	332797.330501	7.423009e-01	83	none	NaN	NaN
116	6	100	72	kitchen	sun_abpwyqmlzafvklqo.tif	332798.091953	332798.350541	332799.090568	7.423009e-01	62	none	NaN	NaN
116	7	1	30	bathroom	sun_ajlawzvmubibwbpy.tif	332805.641095	332805.899681	332806.589636	6.672368e-01	20	37	332807.323494	1
116	7	2	24	bathroom	sun_agrwbmhcpmfuwmsg.tif	332808.101864	332808.360453	332809.050554	7.423009e-01	14	none	NaN	NaN
116	7	3	18	bathroom	sun_acgyywnybuveqsro.tif	332809.820234	332810.078820	332810.769034	7.673223e-01	8	none	NaN	NaN
116	7	4	11	bathroom	labelme_sfxiulhjbhlyiyt.tif	332811.538608	332811.797188	332812.487144	7.506414e-01	1	none	NaN	NaN
116	7	5	36	bathroom	sun_ambriybtogmepttm.tif	332813.248631	332813.507219	332814.197275	7.840032e-01	26	none	NaN	NaN
116	7	6	59	bathroom	sun_axyrejkiiaqiurjk.tif	332814.966995	332815.225588	332815.915539	8.006842e-01	49	37	332820.259421	0
116	7	7	41	bathroom	sun_aoybiabnpadelefl.tif	332821.031336	332821.289928	332821.979951	7.005986e-01	31	none	NaN	NaN
116	7	8	27	bathroom	sun_ahcvzmoyaycdoftf.tif	332822.749707	332823.008293	332823.698433	7.339605e-01	17	none	NaN	NaN
116	7	9	33	bathroom	sun_aljolscmmzydegqp.tif	332824.468075	332824.726668	332825.416808	7.423009e-01	23	none	NaN	NaN
116	7	10	19	bathroom	sun_aclfzgynxzxlbepz.tif	332826.186443	332826.445026	332827.135093	6.755773e-01	9	none	NaN	NaN
116	7	11	50	bathroom	sun_aspsyogrekjtfozg.tif	332827.904814	332828.163399	332828.853494	7.506414e-01	40	none	NaN	NaN
116	7	12	25	bathroom	sun_agyqfjcfkdcydepw.tif	332829.623175	332829.881771	332830.571809	6.505559e-01	15	37	332831.107294	1
116	7	13	48	bathroom	sun_aqrpegblszgcoujh.tif	332831.883750	332832.142338	332832.832456	8.006842e-01	38	none	NaN	NaN
116	7	14	52	bathroom	sun_aunuadmjocsddsrl.tif	332833.602123	332833.860706	332834.550737	8.340460e-01	42	none	NaN	NaN
116	7	15	45	bathroom	sun_apkxzenqapsujocq.tif	332835.320492	332835.579080	332836.269180	7.923437e-01	35	none	NaN	NaN
116	7	16	54	bathroom	sun_auzqhkafidnkrwmo.tif	332837.038854	332837.297450	332837.987479	6.839177e-01	44	none	NaN	NaN
116	7	17	43	bathroom	sun_apjevzvycyhuqghb.tif	332838.757224	332839.015812	332839.705777	6.922582e-01	33	37	332840.315734	1
116	7	18	23	bathroom	sun_aghyqhbptboemmoq.tif	332841.092871	332841.351460	332842.041592	7.589819e-01	13	none	NaN	NaN
116	7	19	57	bathroom	sun_axldvoqbuvuggfmq.tif	332842.811236	332843.069823	332843.759849	7.506414e-01	47	none	NaN	NaN
116	7	20	13	bathroom	sun_aavhrsfjbserjtht.tif	332844.529606	332844.788197	332845.478222	8.173651e-01	3	none	NaN	NaN
116	7	21	28	bathroom	sun_ahijqszoswveeyji.tif	332846.247978	332846.506564	332847.196565	7.339605e-01	18	39	332847.891599	1
116	7	22	51	bathroom	sun_atstyziqcmkahyxk.tif	332848.667037	332848.925626	332849.615625	7.256200e-01	41	none	NaN	NaN
116	7	23	55	bathroom	sun_avhrdrntsqrjzccq.tif	332850.377067	332850.635652	332851.325779	7.089391e-01	45	none	NaN	NaN
116	7	24	40	bathroom	sun_aofnryafpsjimzsb.tif	332852.095439	332852.354028	332853.044162	6.922582e-01	30	none	NaN	NaN
116	7	25	44	bathroom	sun_apkruvsevgegsdwp.tif	332853.813805	332854.072398	332854.762331	8.090246e-01	34	none	NaN	NaN
116	7	26	42	bathroom	sun_apeeialkgkuxddgh.tif	332855.523844	332855.782420	332856.472541	8.173651e-01	32	none	NaN	NaN
116	7	27	20	bathroom	sun_afcoljnjfoxjtgja.tif	332857.242200	332857.500786	332858.190899	7.172796e-01	10	none	NaN	NaN
116	7	28	17	bathroom	sun_acegryoqftbzowsg.tif	332858.960567	332859.219157	332859.909249	8.257055e-01	7	none	NaN	NaN
116	7	29	37	bathroom	sun_amzlamotzwfkwjco.tif	332860.678936	332860.937528	332861.627475	6.922582e-01	27	none	NaN	NaN
116	7	30	16	bathroom	sun_acduarbnmmoglmiv.tif	332862.388963	332862.647551	332863.337675	6.839177e-01	6	none	NaN	NaN
116	7	31	34	bathroom	sun_alkosphxlxwjwgjd.tif	332864.107332	332864.365918	332865.056004	8.340460e-01	24	none	NaN	NaN
116	7	32	49	bathroom	sun_asfwthctfqerjvxr.tif	332865.825699	332866.084291	332866.774343	7.673223e-01	39	none	NaN	NaN
116	7	33	31	bathroom	sun_akiytfaagpdsphgz.tif	332867.544067	332867.802658	332868.492821	7.923437e-01	21	none	NaN	NaN
116	7	34	53	bathroom	sun_ausgutylgojavyoq.tif	332869.262434	332869.521025	332870.211112	7.089391e-01	43	39	332870.883634	1
116	7	35	39	bathroom	sun_anryaplzeujmzfkd.tif	332871.656474	332871.915062	332872.605165	8.423865e-01	29	none	NaN	NaN
116	7	36	21	bathroom	sun_aggnnqpdorgxpvce.tif	332873.374846	332873.633430	332874.323402	7.923437e-01	11	39	332876.275601	1
116	7	37	56	bathroom	sun_awnqiikzaispgmwo.tif	332877.053485	332877.312078	332878.002161	7.339605e-01	46	none	NaN	NaN
116	7	38	14	bathroom	sun_abapwbhyhkfixyex.tif	332878.771852	332879.030443	332879.720478	8.173651e-01	4	none	NaN	NaN
116	7	39	60	bathroom	sun_azqyogdvyhahyram.tif	332880.490221	332880.748808	332881.438855	7.589819e-01	50	none	NaN	NaN
116	7	40	38	bathroom	sun_anhioqovhscjqqwb.tif	332882.208590	332882.467183	332883.157248	8.257055e-01	28	none	NaN	NaN
116	7	41	47	bathroom	sun_apynckhmoftszqoq.tif	332883.926962	332884.185549	332884.875558	6.505559e-01	37	none	NaN	NaN
116	7	42	12	bathroom	sun_aapitsgbtktqubfy.tif	332885.645327	332885.903913	332886.593965	8.006842e-01	2	none	NaN	NaN
116	7	43	22	bathroom	sun_agguqiubmwhqqunb.tif	332887.363696	332887.622288	332888.312300	7.423009e-01	12	37	332889.267437	1
116	7	44	46	bathroom	sun_apmqjbnwghzuhhzh.tif	332890.041345	332890.299940	332890.989967	8.340460e-01	36	none	NaN	NaN
116	7	45	58	bathroom	sun_axxbkopsgyouuebh.tif	332891.759719	332892.018309	332892.708342	8.257055e-01	48	none	NaN	NaN
116	7	46	35	bathroom	sun_alotolagknyrgtsk.tif	332893.478087	332893.736674	332894.426761	8.423865e-01	25	none	NaN	NaN
116	7	47	26	bathroom	sun_ahaulkltgpkeeemi.tif	332895.196459	332895.455044	332896.145145	8.090246e-01	16	none	NaN	NaN
116	7	48	29	bathroom	sun_ahqjwnzgolcaoidx.tif	332896.914825	332897.173411	332897.863413	6.672368e-01	19	none	NaN	NaN
116	7	49	32	bathroom	sun_aleqenyvunhactkl.tif	332898.633192	332898.891780	332899.581725	7.589819e-01	22	none	NaN	NaN
116	7	50	15	bathroom	sun_abjtwfukuwddzted.tif	332900.343220	332900.601808	332901.291862	6.588963e-01	5	none	NaN	NaN
116	7	51	16	bathroom	sun_acduarbnmmoglmiv.tif	332902.061591	332902.320180	332903.010295	7.172796e-01	6	none	NaN	NaN
116	7	52	53	bathroom	sun_ausgutylgojavyoq.tif	332903.779955	332904.038546	332904.728619	8.340460e-01	43	none	NaN	NaN
116	7	53	23	bathroom	sun_aghyqhbptboemmoq.tif	332905.498321	332905.756917	332906.447033	7.756628e-01	13	none	NaN	NaN
116	7	54	17	bathroom	sun_acegryoqftbzowsg.tif	332907.216692	332907.475283	332908.165298	6.672368e-01	7	none	NaN	NaN
116	7	55	32	bathroom	sun_aleqenyvunhactkl.tif	332908.935062	332909.193655	332909.883730	8.423865e-01	22	37	332910.683700	1
116	7	56	37	bathroom	sun_amzlamotzwfkwjco.tif	332911.454224	332911.712811	332912.402786	8.090246e-01	27	none	NaN	NaN
116	7	57	59	bathroom	sun_axyrejkiiaqiurjk.tif	332913.164248	332913.422836	332914.112966	7.506414e-01	49	39	332915.523518	1
116	7	58	41	bathroom	sun_aoybiabnpadelefl.tif	332916.300688	332916.559275	332917.249335	7.005986e-01	31	none	NaN	NaN
116	7	59	26	bathroom	sun_ahaulkltgpkeeemi.tif	332918.019057	332918.277646	332918.967760	8.090246e-01	16	none	NaN	NaN
116	7	60	55	bathroom	sun_avhrdrntsqrjzccq.tif	332919.737427	332919.996012	332920.685992	6.755773e-01	45	none	NaN	NaN
116	7	61	40	bathroom	sun_aofnryafpsjimzsb.tif	332921.447454	332921.706046	332922.396171	7.339605e-01	30	none	NaN	NaN
116	7	62	33	bathroom	sun_aljolscmmzydegqp.tif	332923.165823	332923.424411	332924.114383	6.922582e-01	23	none	NaN	NaN
116	7	63	24	bathroom	sun_agrwbmhcpmfuwmsg.tif	332924.875848	332925.134440	332925.824437	7.589819e-01	14	none	NaN	NaN
116	7	64	39	bathroom	sun_anryaplzeujmzfkd.tif	332926.594216	332926.852805	332927.542846	8.507269e-01	29	none	NaN	NaN
116	7	65	38	bathroom	sun_anhioqovhscjqqwb.tif	332928.312587	332928.571174	332929.261105	6.588963e-01	28	none	NaN	NaN
116	7	66	15	bathroom	sun_abjtwfukuwddzted.tif	332930.022610	332930.281204	332930.971319	6.755773e-01	5	none	NaN	NaN
116	7	67	42	bathroom	sun_apeeialkgkuxddgh.tif	332931.740979	332931.999569	332932.689710	7.840032e-01	32	none	NaN	NaN
116	7	68	11	bathroom	labelme_sfxiulhjbhlyiyt.tif	332933.459347	332933.717935	332934.408038	8.507269e-01	1	none	NaN	NaN
116	7	69	12	bathroom	sun_aapitsgbtktqubfy.tif	332935.177718	332935.436306	332936.126386	6.839177e-01	2	none	NaN	NaN
116	7	70	43	bathroom	sun_apjevzvycyhuqghb.tif	332936.896090	332937.154678	332937.844969	7.256200e-01	33	none	NaN	NaN
116	7	71	47	bathroom	sun_apynckhmoftszqoq.tif	332938.614453	332938.873045	332939.563160	8.006842e-01	37	37	332940.691505	1
116	7	72	34	bathroom	sun_alkosphxlxwjwgjd.tif	332941.467278	332941.725865	332942.415812	7.589819e-01	24	none	NaN	NaN
116	7	73	30	bathroom	sun_ajlawzvmubibwbpy.tif	332943.177306	332943.435901	332944.125865	7.172796e-01	20	none	NaN	NaN
116	7	74	56	bathroom	sun_awnqiikzaispgmwo.tif	332944.887331	332945.145923	332945.836039	6.588963e-01	46	none	NaN	NaN
116	7	75	36	bathroom	sun_ambriybtogmepttm.tif	332946.605701	332946.864291	332947.554274	8.173651e-01	26	none	NaN	NaN
116	7	76	46	bathroom	sun_apmqjbnwghzuhhzh.tif	332948.315729	332948.574317	332949.264313	6.672368e-01	36	none	NaN	NaN
116	7	77	14	bathroom	sun_abapwbhyhkfixyex.tif	332950.034101	332950.292690	332950.982689	7.756628e-01	4	none	NaN	NaN
116	7	78	19	bathroom	sun_aclfzgynxzxlbepz.tif	332951.752468	332952.011058	332952.701181	7.005986e-01	9	none	NaN	NaN
116	7	79	25	bathroom	sun_agyqfjcfkdcydepw.tif	332953.470835	332953.729421	332954.419573	7.005986e-01	15	none	NaN	NaN
116	7	80	13	bathroom	sun_aavhrsfjbserjtht.tif	332955.189222	332955.447790	332956.137750	7.256200e-01	3	none	NaN	NaN
116	7	81	60	bathroom	sun_azqyogdvyhahyram.tif	332956.899228	332957.157823	332957.847746	7.423009e-01	50	none	NaN	NaN
116	7	82	50	bathroom	sun_aspsyogrekjtfozg.tif	332958.617595	332958.876188	332959.566144	6.505559e-01	40	37	332960.531464	0
116	7	83	22	bathroom	sun_agguqiubmwhqqunb.tif	332961.303591	332961.562182	332962.252320	6.588963e-01	12	none	NaN	NaN
116	7	84	20	bathroom	sun_afcoljnjfoxjtgja.tif	332963.021962	332963.280547	332963.970639	8.257055e-01	10	none	NaN	NaN
116	7	85	18	bathroom	sun_acgyywnybuveqsro.tif	332964.740325	332964.998920	332965.688860	6.755773e-01	8	none	NaN	NaN
116	7	86	58	bathroom	sun_axxbkopsgyouuebh.tif	332966.450356	332966.708940	332967.398974	7.756628e-01	48	none	NaN	NaN
116	7	87	35	bathroom	sun_alotolagknyrgtsk.tif	332968.160385	332968.418972	332969.108983	7.256200e-01	25	none	NaN	NaN
116	7	88	44	bathroom	sun_apkruvsevgegsdwp.tif	332969.878749	332970.137333	332970.827306	7.005986e-01	34	none	NaN	NaN
116	7	89	48	bathroom	sun_aqrpegblszgcoujh.tif	332971.588777	332971.847367	332972.537489	7.840032e-01	38	none	NaN	NaN
116	7	90	45	bathroom	sun_apkxzenqapsujocq.tif	332973.307146	332973.565735	332974.255871	7.840032e-01	35	none	NaN	NaN
116	7	91	57	bathroom	sun_axldvoqbuvuggfmq.tif	332975.025515	332975.284100	332975.974232	7.089391e-01	47	39	332977.411269	1
116	7	92	51	bathroom	sun_atstyziqcmkahyxk.tif	332978.186978	332978.445567	332979.135533	7.172796e-01	41	none	NaN	NaN
116	7	93	31	bathroom	sun_akiytfaagpdsphgz.tif	332979.897010	332980.155595	332980.845752	7.923437e-01	21	none	NaN	NaN
116	7	94	29	bathroom	sun_ahqjwnzgolcaoidx.tif	332981.615377	332981.873952	332982.563963	8.257055e-01	19	none	NaN	NaN
116	7	95	54	bathroom	sun_auzqhkafidnkrwmo.tif	332983.325402	332983.583986	332984.274131	8.423865e-01	44	37	332985.179637	1
116	7	96	49	bathroom	sun_asfwthctfqerjvxr.tif	332985.953002	332986.211593	332986.901713	7.756628e-01	39	none	NaN	NaN
116	7	97	52	bathroom	sun_aunuadmjocsddsrl.tif	332987.671370	332987.929957	332988.619892	7.673223e-01	42	none	NaN	NaN
116	7	98	28	bathroom	sun_ahijqszoswveeyji.tif	332989.381401	332989.639985	332990.329958	6.839177e-01	18	none	NaN	NaN
116	7	99	21	bathroom	sun_aggnnqpdorgxpvce.tif	332991.099767	332991.358357	332992.048295	7.089391e-01	11	37	332992.691284	1
116	7	100	27	bathroom	sun_ahcvzmoyaycdoftf.tif	332993.468781	332993.727372	332994.417343	7.673223e-01	17	none	NaN	NaN
116	8	1	66	kitchen	sun_aapllqyqlykszopd.tif	333001.134705	333001.393294	333002.083291	6.755773e-01	56	none	NaN	NaN
116	8	2	91	kitchen	sun_ahljzhgcdpomplvg.tif	333002.844734	333003.103323	333003.793430	7.589819e-01	81	37	333004.363396	1
116	8	3	104	kitchen	sun_auticobqsbwgoppi.tif	333005.138668	333005.397255	333006.087248	8.507269e-01	94	none	NaN	NaN
116	8	4	109	kitchen	sun_aypmqwcualkenuoe.tif	333006.848698	333007.107290	333007.797370	7.756628e-01	99	none	NaN	NaN
116	8	5	81	kitchen	sun_aehawpgmrlhlvcow.tif	333008.567065	333008.825657	333009.515768	7.089391e-01	71	37	333010.307593	1
116	8	6	101	kitchen	sun_aqeaevwwwjoqhzvl.tif	333011.077888	333011.336476	333012.026567	7.256200e-01	91	none	NaN	NaN
116	8	7	85	kitchen	sun_afuyedyxivkhecmu.tif	333012.796257	333013.054840	333013.744911	8.257055e-01	75	none	NaN	NaN
116	8	8	83	kitchen	sun_aeqdocilnnpuvuhx.tif	333014.514625	333014.773213	333015.463182	7.005986e-01	73	none	NaN	NaN
116	8	9	80	kitchen	sun_aegoxogugdkwpmpj.tif	333016.224649	333016.483238	333017.173171	8.090246e-01	70	none	NaN	NaN
116	8	10	86	kitchen	sun_aggjlwcdjsjcaemh.tif	333017.934673	333018.193269	333018.883293	6.672368e-01	76	39	333019.867397	1
116	8	11	65	kitchen	sun_aamedkxepzlwuxes.tif	333020.645690	333020.904283	333021.594397	7.005986e-01	55	none	NaN	NaN
116	8	12	98	kitchen	sun_akchetnepxlcxhsu.tif	333022.364064	333022.622650	333023.312735	7.005986e-01	88	none	NaN	NaN
116	8	13	77	kitchen	sun_acxkpeoqbwcxfvip.tif	333024.082433	333024.341019	333025.031045	8.006842e-01	67	none	NaN	NaN
116	8	14	96	kitchen	sun_ajcbwwvdlsvjyzje.tif	333025.792462	333026.051047	333026.741882	8.257055e-01	86	none	NaN	NaN
116	8	15	84	kitchen	sun_aexklacwqwezaorf.tif	333027.510827	333027.769412	333028.459416	7.256200e-01	74	37	333029.451542	0
116	8	16	79	kitchen	sun_admlmbcdswaszruo.tif	333030.221846	333030.480434	333031.170508	7.506414e-01	69	none	NaN	NaN
116	8	17	89	kitchen	sun_agzzivivdpnawacl.tif	333031.940218	333032.198805	333032.888859	8.423865e-01	79	37	333033.483538	1
116	8	18	92	kitchen	sun_ahpczsiumwwocjkv.tif	333034.259175	333034.517765	333035.207709	8.423865e-01	82	none	NaN	NaN
116	8	19	93	kitchen	sun_ahspylgoovwmwvgk.tif	333035.969193	333036.227791	333036.917849	7.756628e-01	83	39	333037.779541	1
116	8	20	87	kitchen	sun_agorklincwxrdtga.tif	333038.555098	333038.813685	333039.503688	7.840032e-01	77	37	333040.123483	1
116	8	21	68	kitchen	sun_aaxxjlsuzvqlgylf.tif	333040.899087	333041.157673	333041.847814	6.839177e-01	58	none	NaN	NaN
116	8	22	76	kitchen	sun_acwjdupvyjsugpay.tif	333042.617453	333042.876047	333043.566172	6.588963e-01	66	none	NaN	NaN
116	8	23	67	kitchen	sun_aarfiyshqohlwkmo.tif	333044.335821	333044.594407	333045.284344	6.588963e-01	57	none	NaN	NaN
116	8	24	97	kitchen	sun_ajkqhtgcbgpcwrwn.tif	333046.045851	333046.304440	333046.994406	7.506414e-01	87	none	NaN	NaN
116	8	25	110	kitchen	sun_azmutvzbxypaceni.tif	333047.755873	333048.014465	333048.705095	7.172796e-01	100	none	NaN	NaN
116	8	26	105	kitchen	sun_avszsnwsbuqfgzbn.tif	333049.474241	333049.732837	333050.422815	7.840032e-01	95	none	NaN	NaN
116	8	27	70	kitchen	sun_abdxkyyxwfskuaqb.tif	333051.192614	333051.451205	333052.141239	8.507269e-01	60	none	NaN	NaN
116	8	28	69	kitchen	sun_abdenxonkemggwsq.tif	333052.910984	333053.169574	333053.859651	7.506414e-01	59	none	NaN	NaN
116	8	29	64	kitchen	sun_aadbddgrdsjugojn.tif	333054.629346	333054.887941	333055.578043	8.423865e-01	54	none	NaN	NaN
116	8	30	72	kitchen	sun_abpwyqmlzafvklqo.tif	333056.347718	333056.606311	333057.296404	7.673223e-01	62	none	NaN	NaN
116	8	31	71	kitchen	sun_abftihopvusyfakt.tif	333058.066085	333058.324680	333059.014745	7.589819e-01	61	none	NaN	NaN
116	8	32	108	kitchen	sun_aymvwlarqodbwuoc.tif	333059.784456	333060.043042	333060.733112	8.340460e-01	98	none	NaN	NaN
116	8	33	102	kitchen	sun_auaiucuqpdausiva.tif	333061.502823	333061.761418	333062.451477	7.339605e-01	92	none	NaN	NaN
116	8	34	75	kitchen	sun_acgtpgfybqjmzeyw.tif	333063.221195	333063.479785	333064.169822	7.923437e-01	65	none	NaN	NaN
116	8	35	100	kitchen	sun_amjjdeyrggfqgmom.tif	333064.939559	333065.198152	333065.888262	8.257055e-01	90	none	NaN	NaN
116	8	36	74	kitchen	sun_acfmftudsenhrfhy.tif	333066.657931	333066.916522	333067.606618	7.673223e-01	64	none	NaN	NaN
116	8	37	73	kitchen	sun_abrcnpqqhmjwekyf.tif	333068.376296	333068.634888	333069.324889	8.006842e-01	63	none	NaN	NaN
116	8	38	94	kitchen	sun_ahywdevtimnqcsln.tif	333070.094667	333070.353259	333071.043311	8.173651e-01	84	none	NaN	NaN
116	8	39	106	kitchen	sun_awcpdzzznmweyyhv.tif	333071.813035	333072.071626	333072.761669	6.922582e-01	96	none	NaN	NaN
116	8	40	103	kitchen	sun_aunzlwrbjumxhwdj.tif	333073.531403	333073.789997	333074.480083	7.172796e-01	93	none	NaN	NaN
116	8	41	99	kitchen	sun_akcjzhbbjlbogpdi.tif	333075.249775	333075.508365	333076.198446	7.423009e-01	89	none	NaN	NaN
116	8	42	63	kitchen	labelme_rykdqxenmhulbdn.tif	333076.968142	333077.226733	333077.916729	8.257055e-01	53	none	NaN	NaN
116	8	43	61	kitchen	labelme_brsyyvweiuaazfr.tif	333078.686512	333078.945102	333079.635214	7.506414e-01	51	none	NaN	NaN
116	8	44	88	kitchen	sun_agubuxuukhzyzpdp.tif	333080.404878	333080.663467	333081.353417	7.589819e-01	78	none	NaN	NaN
116	8	45	95	kitchen	sun_aixorpehvfykdynp.tif	333082.114904	333082.373487	333083.063533	7.089391e-01	85	none	NaN	NaN
116	8	46	62	kitchen	labelme_kxvouciolcpqplr.tif	333083.833272	333084.091859	333084.781827	7.840032e-01	52	none	NaN	NaN
116	8	47	78	kitchen	sun_adgqasybjyktddhj.tif	333085.551640	333085.810234	333086.500180	8.423865e-01	68	none	NaN	NaN
116	8	48	82	kitchen	sun_aenotlpyftoioydp.tif	333087.261667	333087.520257	333088.210184	6.755773e-01	72	37	333089.347377	1
116	8	49	90	kitchen	sun_ahdycvpopffkzzsu.tif	333090.122835	333090.381423	333091.071574	7.423009e-01	80	none	NaN	NaN
116	8	50	107	kitchen	sun_axyyrmzcupyhlivc.tif	333091.841208	333092.099789	333092.789774	6.839177e-01	97	none	NaN	NaN
116	8	51	109	kitchen	sun_aypmqwcualkenuoe.tif	333093.559569	333093.818160	333094.508306	7.756628e-01	99	none	NaN	NaN
116	8	52	75	kitchen	sun_acgtpgfybqjmzeyw.tif	333095.277937	333095.536521	333096.226530	7.172796e-01	65	none	NaN	NaN
116	8	53	76	kitchen	sun_acwjdupvyjsugpay.tif	333096.996308	333097.254928	333097.944895	6.755773e-01	66	none	NaN	NaN
116	8	54	66	kitchen	sun_aapllqyqlykszopd.tif	333098.714677	333098.973268	333099.663332	6.505559e-01	56	none	NaN	NaN
116	8	55	107	kitchen	sun_axyyrmzcupyhlivc.tif	333100.433046	333100.691636	333101.381775	7.005986e-01	97	37	333101.995351	1
116	8	56	64	kitchen	sun_aadbddgrdsjugojn.tif	333102.768694	333103.027282	333103.717388	8.257055e-01	54	37	333104.523571	1
116	8	57	101	kitchen	sun_aqeaevwwwjoqhzvl.tif	333105.296196	333105.554789	333106.244730	6.922582e-01	91	none	NaN	NaN
116	8	58	79	kitchen	sun_admlmbcdswaszruo.tif	333107.006224	333107.264812	333107.954816	7.256200e-01	69	none	NaN	NaN
116	8	59	61	kitchen	labelme_brsyyvweiuaazfr.tif	333108.724590	333108.983183	333109.673253	7.589819e-01	51	none	NaN	NaN
116	8	60	92	kitchen	sun_ahpczsiumwwocjkv.tif	333110.442958	333110.701547	333111.391594	7.589819e-01	82	none	NaN	NaN
116	8	61	63	kitchen	labelme_rykdqxenmhulbdn.tif	333112.161325	333112.419916	333113.110060	7.339605e-01	53	none	NaN	NaN
116	8	62	93	kitchen	sun_ahspylgoovwmwvgk.tif	333113.879695	333114.138283	333114.828411	7.256200e-01	83	none	NaN	NaN
116	8	63	106	kitchen	sun_awcpdzzznmweyyhv.tif	333115.598065	333115.856652	333116.546794	6.922582e-01	96	none	NaN	NaN
116	8	64	83	kitchen	sun_aeqdocilnnpuvuhx.tif	333117.316434	333117.575023	333118.265052	6.839177e-01	73	none	NaN	NaN
116	8	65	70	kitchen	sun_abdxkyyxwfskuaqb.tif	333119.034804	333119.293388	333119.983543	7.005986e-01	60	none	NaN	NaN
116	8	66	84	kitchen	sun_aexklacwqwezaorf.tif	333120.753174	333121.011756	333121.701905	7.756628e-01	74	none	NaN	NaN
116	8	67	78	kitchen	sun_adgqasybjyktddhj.tif	333122.471539	333122.730131	333123.420091	7.923437e-01	68	none	NaN	NaN
116	8	68	77	kitchen	sun_acxkpeoqbwcxfvip.tif	333124.189909	333124.448494	333125.138577	7.840032e-01	67	none	NaN	NaN
116	8	69	74	kitchen	sun_acfmftudsenhrfhy.tif	333125.908277	333126.166864	333126.856879	8.090246e-01	64	none	NaN	NaN
116	8	70	94	kitchen	sun_ahywdevtimnqcsln.tif	333127.626644	333127.885233	333128.575216	7.089391e-01	84	39	333129.603442	1
116	8	71	95	kitchen	sun_aixorpehvfykdynp.tif	333130.379365	333130.637956	333131.327999	6.672368e-01	85	39	333132.195236	1
116	8	72	73	kitchen	sun_abrcnpqqhmjwekyf.tif	333132.973604	333133.232191	333133.922158	8.006842e-01	63	37	333134.691408	1
116	8	73	88	kitchen	sun_agubuxuukhzyzpdp.tif	333135.467742	333135.726334	333136.416286	8.173651e-01	78	none	NaN	NaN
116	8	74	98	kitchen	sun_akchetnepxlcxhsu.tif	333137.177769	333137.436361	333138.126312	8.006842e-01	88	none	NaN	NaN
116	8	75	80	kitchen	sun_aegoxogugdkwpmpj.tif	333138.887793	333139.146390	333139.836373	6.672368e-01	70	39	333140.955324	1
116	8	76	65	kitchen	sun_aamedkxepzlwuxes.tif	333141.732281	333141.990863	333142.680964	7.673223e-01	55	none	NaN	NaN
116	8	77	103	kitchen	sun_aunzlwrbjumxhwdj.tif	333143.450648	333143.709236	333144.399185	7.423009e-01	93	none	NaN	NaN
116	8	78	86	kitchen	sun_aggjlwcdjsjcaemh.tif	333145.160679	333145.419265	333146.109364	8.090246e-01	76	none	NaN	NaN
116	8	79	71	kitchen	sun_abftihopvusyfakt.tif	333146.879047	333147.137632	333147.827742	7.423009e-01	61	none	NaN	NaN
116	8	80	81	kitchen	sun_aehawpgmrlhlvcow.tif	333148.597412	333148.856000	333149.546016	8.340460e-01	71	none	NaN	NaN
116	8	81	96	kitchen	sun_ajcbwwvdlsvjyzje.tif	333150.315777	333150.574366	333151.264452	6.588963e-01	86	none	NaN	NaN
116	8	82	102	kitchen	sun_auaiucuqpdausiva.tif	333152.034151	333152.292738	333152.982808	6.922582e-01	92	none	NaN	NaN
116	8	83	62	kitchen	labelme_kxvouciolcpqplr.tif	333153.752517	333154.011104	333154.701134	7.339605e-01	52	none	NaN	NaN
116	8	84	108	kitchen	sun_aymvwlarqodbwuoc.tif	333155.470887	333155.729475	333156.419596	6.588963e-01	98	none	NaN	NaN
116	8	85	72	kitchen	sun_abpwyqmlzafvklqo.tif	333157.189258	333157.447845	333158.137909	8.173651e-01	62	none	NaN	NaN
116	8	86	87	kitchen	sun_agorklincwxrdtga.tif	333158.907624	333159.166207	333159.856164	7.339605e-01	77	none	NaN	NaN
116	8	87	90	kitchen	sun_ahdycvpopffkzzsu.tif	333160.625994	333160.884581	333161.574538	7.923437e-01	80	none	NaN	NaN
116	8	88	82	kitchen	sun_aenotlpyftoioydp.tif	333162.336015	333162.594611	333163.284615	6.839177e-01	72	none	NaN	NaN
116	8	89	100	kitchen	sun_amjjdeyrggfqgmom.tif	333164.054389	333164.312975	333165.002976	7.172796e-01	90	39	333165.723520	1
116	8	90	67	kitchen	sun_aarfiyshqohlwkmo.tif	333166.498472	333166.757067	333167.447151	7.089391e-01	57	none	NaN	NaN
116	8	91	104	kitchen	sun_auticobqsbwgoppi.tif	333168.216838	333168.475430	333169.165463	8.090246e-01	94	none	NaN	NaN
116	8	92	110	kitchen	sun_azmutvzbxypaceni.tif	333169.935208	333170.193804	333170.883942	7.673223e-01	100	none	NaN	NaN
116	8	93	105	kitchen	sun_avszsnwsbuqfgzbn.tif	333171.653577	333171.912165	333172.602283	8.173651e-01	95	none	NaN	NaN
116	8	94	97	kitchen	sun_ajkqhtgcbgpcwrwn.tif	333173.371947	333173.630537	333174.320501	8.340460e-01	87	none	NaN	NaN
116	8	95	85	kitchen	sun_afuyedyxivkhecmu.tif	333175.081978	333175.340567	333176.030567	8.340460e-01	75	none	NaN	NaN
116	8	96	89	kitchen	sun_agzzivivdpnawacl.tif	333176.800338	333177.058931	333177.748893	7.923437e-01	79	none	NaN	NaN
116	8	97	91	kitchen	sun_ahljzhgcdpomplvg.tif	333178.510374	333178.768963	333179.459054	6.672368e-01	81	none	NaN	NaN
116	8	98	99	kitchen	sun_akcjzhbbjlbogpdi.tif	333180.228734	333180.487328	333181.177257	6.505559e-01	89	none	NaN	NaN
116	8	99	68	kitchen	sun_aaxxjlsuzvqlgylf.tif	333181.947105	333182.205693	333182.895766	6.755773e-01	58	none	NaN	NaN
116	8	100	69	kitchen	sun_abdenxonkemggwsq.tif	333183.665472	333183.924068	333184.614092	6.505559e-01	59	none	NaN	NaN
116	9	1	11	bathroom	labelme_sfxiulhjbhlyiyt.tif	333206.421347	333206.679935	333207.328271	7.756628e-01	1	none	NaN	NaN
116	9	2	24	bathroom	sun_agrwbmhcpmfuwmsg.tif	333208.098005	333208.356592	333209.004838	8.507269e-01	14	none	NaN	NaN
116	9	3	60	bathroom	sun_azqyogdvyhahyram.tif	333209.766323	333210.024910	333210.673292	7.005986e-01	50	none	NaN	NaN
116	9	4	19	bathroom	sun_aclfzgynxzxlbepz.tif	333211.442983	333211.701573	333212.349907	7.923437e-01	9	none	NaN	NaN
116	9	5	14	bathroom	sun_abapwbhyhkfixyex.tif	333213.119643	333213.378232	333214.026545	8.173651e-01	4	none	NaN	NaN
116	9	6	15	bathroom	sun_abjtwfukuwddzted.tif	333214.796307	333215.054893	333215.703309	6.922582e-01	5	39	333216.315339	1
116	9	7	21	bathroom	sun_aggnnqpdorgxpvce.tif	333217.090242	333217.348837	333217.997270	7.506414e-01	11	none	NaN	NaN
116	9	8	38	bathroom	sun_anhioqovhscjqqwb.tif	333218.766907	333219.025494	333219.673875	6.505559e-01	28	none	NaN	NaN
116	9	9	44	bathroom	sun_apkruvsevgegsdwp.tif	333220.443566	333220.702156	333221.350502	6.588963e-01	34	none	NaN	NaN
116	9	10	56	bathroom	sun_awnqiikzaispgmwo.tif	333222.120223	333222.378810	333223.027156	6.588963e-01	46	none	NaN	NaN
116	9	11	16	bathroom	sun_acduarbnmmoglmiv.tif	333223.796885	333224.055476	333224.703795	8.257055e-01	6	none	NaN	NaN
116	9	12	45	bathroom	sun_apkxzenqapsujocq.tif	333225.473547	333225.732139	333226.380446	8.006842e-01	35	none	NaN	NaN
116	9	13	18	bathroom	sun_acgyywnybuveqsro.tif	333227.150207	333227.408794	333228.057082	8.423865e-01	8	none	NaN	NaN
116	9	14	20	bathroom	sun_afcoljnjfoxjtgja.tif	333228.826867	333229.085457	333229.733826	7.756628e-01	10	37	333230.347595	1
116	9	15	49	bathroom	sun_asfwthctfqerjvxr.tif	333231.120809	333231.379398	333232.027706	8.090246e-01	39	none	NaN	NaN
116	9	16	31	bathroom	sun_akiytfaagpdsphgz.tif	333232.797463	333233.056058	333233.704389	7.589819e-01	21	none	NaN	NaN
116	9	17	17	bathroom	sun_acegryoqftbzowsg.tif	333234.474130	333234.732718	333235.380997	7.423009e-01	7	none	NaN	NaN
116	9	18	54	bathroom	sun_auzqhkafidnkrwmo.tif	333236.150784	333236.409378	333237.057634	8.507269e-01	44	none	NaN	NaN
116	9	19	50	bathroom	sun_aspsyogrekjtfozg.tif	333237.819104	333238.077688	333238.726056	8.173651e-01	40	none	NaN	NaN
116	9	20	34	bathroom	sun_alkosphxlxwjwgjd.tif	333239.495767	333239.754356	333240.402771	7.339605e-01	24	37	333241.203208	1
116	9	21	53	bathroom	sun_ausgutylgojavyoq.tif	333241.981563	333242.240151	333242.888494	6.839177e-01	43	none	NaN	NaN
116	9	22	13	bathroom	sun_aavhrsfjbserjtht.tif	333243.658221	333243.916811	333244.565183	6.672368e-01	3	none	NaN	NaN
116	9	23	52	bathroom	sun_aunuadmjocsddsrl.tif	333245.326537	333245.585129	333246.233577	6.505559e-01	42	none	NaN	NaN
116	9	24	12	bathroom	sun_aapitsgbtktqubfy.tif	333247.003202	333247.261788	333247.910199	7.589819e-01	2	none	NaN	NaN
116	9	25	39	bathroom	sun_anryaplzeujmzfkd.tif	333248.679862	333248.938454	333249.586849	7.339605e-01	29	none	NaN	NaN
116	9	26	29	bathroom	sun_ahqjwnzgolcaoidx.tif	333250.356523	333250.615109	333251.263468	7.089391e-01	19	none	NaN	NaN
116	9	27	26	bathroom	sun_ahaulkltgpkeeemi.tif	333252.033179	333252.291773	333252.940117	6.672368e-01	16	37	333253.627200	1
116	9	28	51	bathroom	sun_atstyziqcmkahyxk.tif	333254.402194	333254.660789	333255.309054	7.089391e-01	41	none	NaN	NaN
116	9	29	41	bathroom	sun_aoybiabnpadelefl.tif	333256.070517	333256.329107	333256.977537	7.840032e-01	31	none	NaN	NaN
116	9	30	28	bathroom	sun_ahijqszoswveeyji.tif	333257.747178	333258.005760	333258.654106	7.423009e-01	18	none	NaN	NaN
116	9	31	57	bathroom	sun_axldvoqbuvuggfmq.tif	333259.423835	333259.682423	333260.330673	7.923437e-01	47	none	NaN	NaN
116	9	32	32	bathroom	sun_aleqenyvunhactkl.tif	333261.092152	333261.350743	333261.999063	7.005986e-01	22	39	333262.643371	1
116	9	33	25	bathroom	sun_agyqfjcfkdcydepw.tif	333263.419458	333263.678054	333264.326282	8.006842e-01	15	none	NaN	NaN
116	9	34	30	bathroom	sun_ajlawzvmubibwbpy.tif	333265.087777	333265.346366	333265.994603	8.257055e-01	20	none	NaN	NaN
116	9	35	58	bathroom	sun_axxbkopsgyouuebh.tif	333266.756096	333267.014684	333267.663767	7.506414e-01	48	none	NaN	NaN
116	9	36	48	bathroom	sun_aqrpegblszgcoujh.tif	333268.432759	333268.691350	333269.339603	7.673223e-01	38	none	NaN	NaN
116	9	37	36	bathroom	sun_ambriybtogmepttm.tif	333270.101078	333270.359671	333271.008026	8.257055e-01	26	none	NaN	NaN
116	9	38	33	bathroom	sun_aljolscmmzydegqp.tif	333271.777734	333272.036324	333272.684648	7.673223e-01	23	none	NaN	NaN
116	9	39	42	bathroom	sun_apeeialkgkuxddgh.tif	333273.454399	333273.712984	333274.361350	7.840032e-01	32	none	NaN	NaN
116	9	40	55	bathroom	sun_avhrdrntsqrjzccq.tif	333275.131067	333275.389646	333276.038014	6.755773e-01	45	37	333276.691368	1
116	9	41	46	bathroom	sun_apmqjbnwghzuhhzh.tif	333277.466707	333277.725297	333278.373658	6.839177e-01	36	none	NaN	NaN
116	9	42	22	bathroom	sun_agguqiubmwhqqunb.tif	333279.143366	333279.401956	333280.050232	6.588963e-01	12	none	NaN	NaN
116	9	43	27	bathroom	sun_ahcvzmoyaycdoftf.tif	333280.820026	333281.078618	333281.726897	6.755773e-01	17	none	NaN	NaN
116	9	44	47	bathroom	sun_apynckhmoftszqoq.tif	333282.488348	333282.746936	333283.395334	6.839177e-01	37	none	NaN	NaN
116	9	45	59	bathroom	sun_axyrejkiiaqiurjk.tif	333284.165005	333284.423594	333285.071989	7.423009e-01	49	none	NaN	NaN
116	9	46	35	bathroom	sun_alotolagknyrgtsk.tif	333285.841664	333286.100252	333286.748535	6.672368e-01	25	37	333287.603471	1
116	9	47	40	bathroom	sun_aofnryafpsjimzsb.tif	333288.377507	333288.636094	333289.284483	7.089391e-01	30	37	333289.915459	0
116	9	48	23	bathroom	sun_aghyqhbptboemmoq.tif	333290.688135	333290.946719	333291.594981	7.840032e-01	13	none	NaN	NaN
116	9	49	43	bathroom	sun_apjevzvycyhuqghb.tif	333292.356451	333292.615037	333293.263424	6.672368e-01	33	none	NaN	NaN
116	9	50	37	bathroom	sun_amzlamotzwfkwjco.tif	333294.033111	333294.291701	333294.940036	8.090246e-01	27	none	NaN	NaN
