subject	block	trial	texture	category	image	trialOnset	itiOnset	trialEnd	iti	EEGtrigger	responseKey	responseTime	accuracy
124	1	1	13	bathroom	sun_aavhrsfjbserjtht.tif	408815.996402	408816.246714	408816.992920	7.506155e-01	3	none	NaN	NaN
124	1	2	49	bathroom	sun_asfwthctfqerjvxr.tif	408817.764496	408818.014667	408818.761136	8.506975e-01	39	none	NaN	NaN
124	1	3	25	bathroom	sun_agyqfjcfkdcydepw.tif	408819.532618	408819.782857	408820.529132	6.672138e-01	15	39	408821.684693	1
124	1	4	38	bathroom	sun_anhioqovhscjqqwb.tif	408822.485020	408822.735334	408823.481569	7.839762e-01	28	none	NaN	NaN
124	1	5	37	bathroom	sun_amzlamotzwfkwjco.tif	408824.253132	408824.503246	408825.249781	7.172548e-01	27	none	NaN	NaN
124	1	6	16	bathroom	sun_acduarbnmmoglmiv.tif	408826.021230	408826.271432	408827.017877	6.838941e-01	6	none	NaN	NaN
124	1	7	41	bathroom	sun_aoybiabnpadelefl.tif	408827.789329	408828.039444	408828.785815	7.005744e-01	31	39	408829.652678	1
124	1	8	55	bathroom	sun_avhrdrntsqrjzccq.tif	408830.441502	408830.691838	408831.438138	7.005744e-01	45	none	NaN	NaN
124	1	9	60	bathroom	sun_azqyogdvyhahyram.tif	408832.209582	408832.459721	408833.206169	7.339351e-01	50	37	408834.100823	1
124	1	10	29	bathroom	sun_ahqjwnzgolcaoidx.tif	408834.895103	408835.145213	408835.891566	7.339351e-01	19	none	NaN	NaN
124	1	11	15	bathroom	sun_abjtwfukuwddzted.tif	408836.663212	408836.913516	408837.659830	8.340172e-01	5	37	408838.644665	1
124	1	12	39	bathroom	sun_anryaplzeujmzfkd.tif	408839.448854	408839.715650	408840.445362	6.838941e-01	29	none	NaN	NaN
124	1	13	17	bathroom	sun_acegryoqftbzowsg.tif	408841.216919	408841.467156	408842.213580	8.006565e-01	7	none	NaN	NaN
124	1	14	30	bathroom	sun_ajlawzvmubibwbpy.tif	408842.985018	408843.235337	408843.981660	8.173369e-01	20	none	NaN	NaN
124	1	15	23	bathroom	sun_aghyqhbptboemmoq.tif	408844.753126	408845.003425	408845.749671	7.839762e-01	13	none	NaN	NaN
124	1	16	53	bathroom	sun_ausgutylgojavyoq.tif	408846.521225	408846.771417	408847.517768	7.506155e-01	43	none	NaN	NaN
124	1	17	59	bathroom	sun_axyrejkiiaqiurjk.tif	408848.289351	408848.539678	408849.285976	7.339351e-01	49	none	NaN	NaN
124	1	18	58	bathroom	sun_axxbkopsgyouuebh.tif	408850.057483	408850.307601	408851.054044	7.339351e-01	48	none	NaN	NaN
124	1	19	14	bathroom	sun_abapwbhyhkfixyex.tif	408851.825537	408852.075184	408852.821995	7.005744e-01	4	none	NaN	NaN
124	1	20	33	bathroom	sun_aljolscmmzydegqp.tif	408853.593642	408853.843905	408854.590267	6.838941e-01	23	none	NaN	NaN
124	1	21	46	bathroom	sun_apmqjbnwghzuhhzh.tif	408855.361747	408855.612048	408856.358248	7.339351e-01	36	39	408857.540490	1
124	1	22	18	bathroom	sun_acgyywnybuveqsro.tif	408858.330826	408858.580981	408859.327382	6.672138e-01	8	none	NaN	NaN
124	1	23	19	bathroom	sun_aclfzgynxzxlbepz.tif	408860.098926	408860.349186	408861.095398	7.839762e-01	9	none	NaN	NaN
124	1	24	11	bathroom	labelme_sfxiulhjbhlyiyt.tif	408861.867036	408862.117289	408862.863584	6.672138e-01	1	39	408863.676639	1
124	1	25	27	bathroom	sun_ahcvzmoyaycdoftf.tif	408864.469147	408864.719327	408865.465643	8.173369e-01	17	none	NaN	NaN
124	1	26	21	bathroom	sun_aggnnqpdorgxpvce.tif	408866.237260	408866.487578	408867.233809	7.672958e-01	11	none	NaN	NaN
124	1	27	42	bathroom	sun_apeeialkgkuxddgh.tif	408868.005344	408868.255571	408869.001876	7.506155e-01	32	none	NaN	NaN
124	1	28	56	bathroom	sun_awnqiikzaispgmwo.tif	408869.773460	408870.023629	408870.770098	8.173369e-01	46	none	NaN	NaN
124	1	29	44	bathroom	sun_apkruvsevgegsdwp.tif	408871.541566	408871.791808	408872.538052	7.506155e-01	34	none	NaN	NaN
124	1	30	20	bathroom	sun_afcoljnjfoxjtgja.tif	408873.309659	408873.559890	408874.306194	7.172548e-01	10	none	NaN	NaN
124	1	31	28	bathroom	sun_ahijqszoswveeyji.tif	408875.077769	408875.328067	408876.074318	8.506975e-01	18	none	NaN	NaN
124	1	32	26	bathroom	sun_ahaulkltgpkeeemi.tif	408876.845876	408877.096140	408877.842331	7.672958e-01	16	none	NaN	NaN
124	1	33	22	bathroom	sun_agguqiubmwhqqunb.tif	408878.613970	408878.864317	408879.610601	7.005744e-01	12	none	NaN	NaN
124	1	34	47	bathroom	sun_apynckhmoftszqoq.tif	408880.382087	408880.632216	408881.378678	7.672958e-01	37	none	NaN	NaN
124	1	35	45	bathroom	sun_apkxzenqapsujocq.tif	408882.150193	408882.400408	408883.146846	8.173369e-01	35	none	NaN	NaN
124	1	36	34	bathroom	sun_alkosphxlxwjwgjd.tif	408883.918286	408884.168132	408884.914752	8.340172e-01	24	none	NaN	NaN
124	1	37	12	bathroom	sun_aapitsgbtktqubfy.tif	408885.686406	408885.936524	408886.683024	8.006565e-01	2	none	NaN	NaN
124	1	38	52	bathroom	sun_aunuadmjocsddsrl.tif	408887.454550	408887.704606	408888.451141	7.005744e-01	42	none	NaN	NaN
124	1	39	50	bathroom	sun_aspsyogrekjtfozg.tif	408889.222626	408889.472787	408890.219119	7.839762e-01	40	none	NaN	NaN
124	1	40	54	bathroom	sun_auzqhkafidnkrwmo.tif	408890.990737	408891.241020	408891.987405	6.505334e-01	44	none	NaN	NaN
124	1	41	31	bathroom	sun_akiytfaagpdsphgz.tif	408892.758819	408893.008995	408893.755360	6.505334e-01	21	39	408894.668730	1
124	1	42	48	bathroom	sun_aqrpegblszgcoujh.tif	408895.461020	408895.711159	408896.457577	8.173369e-01	38	none	NaN	NaN
124	1	43	35	bathroom	sun_alotolagknyrgtsk.tif	408897.229119	408897.479426	408898.225614	8.006565e-01	25	none	NaN	NaN
124	1	44	24	bathroom	sun_agrwbmhcpmfuwmsg.tif	408898.997274	408899.247496	408899.993753	7.172548e-01	14	none	NaN	NaN
124	1	45	40	bathroom	sun_aofnryafpsjimzsb.tif	408900.765318	408901.015492	408901.761964	7.839762e-01	30	none	NaN	NaN
124	1	46	36	bathroom	sun_ambriybtogmepttm.tif	408902.533445	408902.783762	408903.529985	7.672958e-01	26	none	NaN	NaN
124	1	47	57	bathroom	sun_axldvoqbuvuggfmq.tif	408904.301531	408904.551691	408905.298007	8.340172e-01	47	none	NaN	NaN
124	1	48	43	bathroom	sun_apjevzvycyhuqghb.tif	408906.069648	408906.319908	408907.066238	6.505334e-01	33	none	NaN	NaN
124	1	49	32	bathroom	sun_aleqenyvunhactkl.tif	408907.837715	408908.088000	408908.834188	7.005744e-01	22	none	NaN	NaN
124	1	50	51	bathroom	sun_atstyziqcmkahyxk.tif	408909.605853	408909.856052	408910.602508	8.006565e-01	41	none	NaN	NaN
124	1	51	59	bathroom	sun_axyrejkiiaqiurjk.tif	408911.373964	408911.624288	408912.370570	7.005744e-01	49	none	NaN	NaN
124	1	52	11	bathroom	labelme_sfxiulhjbhlyiyt.tif	408913.142069	408913.392198	408914.138719	7.339351e-01	1	none	NaN	NaN
124	1	53	25	bathroom	sun_agyqfjcfkdcydepw.tif	408914.910162	408915.160504	408915.906767	7.506155e-01	15	none	NaN	NaN
124	1	54	16	bathroom	sun_acduarbnmmoglmiv.tif	408916.678276	408916.928542	408917.674908	7.172548e-01	6	none	NaN	NaN
124	1	55	21	bathroom	sun_aggnnqpdorgxpvce.tif	408918.446383	408918.696180	408919.442937	7.506155e-01	11	none	NaN	NaN
124	1	56	51	bathroom	sun_atstyziqcmkahyxk.tif	408920.214487	408920.465500	408921.211042	7.839762e-01	41	none	NaN	NaN
124	1	57	32	bathroom	sun_aleqenyvunhactkl.tif	408921.982585	408922.232824	408922.979213	8.006565e-01	22	none	NaN	NaN
124	1	58	33	bathroom	sun_aljolscmmzydegqp.tif	408923.750687	408924.000856	408924.747266	7.672958e-01	23	none	NaN	NaN
124	1	59	18	bathroom	sun_acgyywnybuveqsro.tif	408925.518793	408925.768890	408926.515461	7.172548e-01	8	none	NaN	NaN
124	1	60	36	bathroom	sun_ambriybtogmepttm.tif	408927.286899	408927.537218	408928.283547	7.839762e-01	26	none	NaN	NaN
124	1	61	13	bathroom	sun_aavhrsfjbserjtht.tif	408929.054997	408929.305359	408930.051626	8.506975e-01	3	none	NaN	NaN
124	1	62	56	bathroom	sun_awnqiikzaispgmwo.tif	408930.823084	408931.073262	408931.819667	7.672958e-01	46	39	408932.940751	1
124	1	63	14	bathroom	sun_abapwbhyhkfixyex.tif	408933.742144	408933.992426	408934.738799	6.672138e-01	4	none	NaN	NaN
124	1	64	45	bathroom	sun_apkxzenqapsujocq.tif	408935.510247	408935.760394	408936.506721	8.173369e-01	35	none	NaN	NaN
124	1	65	38	bathroom	sun_anhioqovhscjqqwb.tif	408937.278348	408937.528560	408938.274933	8.340172e-01	28	37	408939.452411	1
124	1	66	44	bathroom	sun_apkruvsevgegsdwp.tif	408940.247436	408940.497753	408941.244008	8.006565e-01	34	37	408943.356819	1
124	1	67	35	bathroom	sun_alotolagknyrgtsk.tif	408944.150605	408944.400915	408945.147093	6.672138e-01	25	none	NaN	NaN
124	1	68	55	bathroom	sun_avhrdrntsqrjzccq.tif	408945.918726	408946.168881	408946.915392	6.838941e-01	45	39	408948.196559	1
124	1	69	22	bathroom	sun_agguqiubmwhqqunb.tif	408948.987871	408949.238045	408949.984404	6.838941e-01	12	none	NaN	NaN
124	1	70	24	bathroom	sun_agrwbmhcpmfuwmsg.tif	408950.755982	408951.006262	408951.752590	7.506155e-01	14	none	NaN	NaN
124	1	71	47	bathroom	sun_apynckhmoftszqoq.tif	408952.524087	408952.774121	408953.520638	8.340172e-01	37	none	NaN	NaN
124	1	72	53	bathroom	sun_ausgutylgojavyoq.tif	408954.292191	408954.542437	408955.288725	7.672958e-01	43	none	NaN	NaN
124	1	73	15	bathroom	sun_abjtwfukuwddzted.tif	408956.060285	408956.310573	408957.056876	8.006565e-01	5	none	NaN	NaN
124	1	74	28	bathroom	sun_ahijqszoswveeyji.tif	408957.828395	408958.078708	408958.824974	7.339351e-01	18	none	NaN	NaN
124	1	75	26	bathroom	sun_ahaulkltgpkeeemi.tif	408959.596513	408959.846559	408960.593026	8.173369e-01	16	37	408966.932590	1
124	1	76	58	bathroom	sun_axxbkopsgyouuebh.tif	408967.736455	408967.986708	408968.732931	6.838941e-01	48	none	NaN	NaN
124	1	77	17	bathroom	sun_acegryoqftbzowsg.tif	408969.504549	408969.754657	408970.501139	6.838941e-01	7	37	408971.372701	1
124	1	78	54	bathroom	sun_auzqhkafidnkrwmo.tif	408972.173387	408972.423577	408973.169953	8.340172e-01	44	none	NaN	NaN
124	1	79	30	bathroom	sun_ajlawzvmubibwbpy.tif	408973.941504	408974.191728	408974.938016	7.172548e-01	20	none	NaN	NaN
124	1	80	19	bathroom	sun_aclfzgynxzxlbepz.tif	408975.709622	408975.959717	408976.706240	8.173369e-01	9	none	NaN	NaN
124	1	81	60	bathroom	sun_azqyogdvyhahyram.tif	408977.477700	408977.728055	408978.474463	7.172548e-01	50	none	NaN	NaN
124	1	82	50	bathroom	sun_aspsyogrekjtfozg.tif	408979.245805	408979.495911	408980.242285	7.839762e-01	40	none	NaN	NaN
124	1	83	42	bathroom	sun_apeeialkgkuxddgh.tif	408981.013905	408981.264255	408982.010499	7.005744e-01	32	none	NaN	NaN
124	1	84	49	bathroom	sun_asfwthctfqerjvxr.tif	408982.782024	408983.032226	408983.778506	7.672958e-01	39	none	NaN	NaN
124	1	85	27	bathroom	sun_ahcvzmoyaycdoftf.tif	408984.550113	408984.800351	408985.546696	7.005744e-01	17	none	NaN	NaN
124	1	86	12	bathroom	sun_aapitsgbtktqubfy.tif	408986.318227	408986.568480	408987.314736	7.339351e-01	2	none	NaN	NaN
124	1	87	23	bathroom	sun_aghyqhbptboemmoq.tif	408988.086332	408988.336620	408989.082892	6.505334e-01	13	39	408990.460743	1
124	1	88	20	bathroom	sun_afcoljnjfoxjtgja.tif	408991.255564	408991.505839	408992.252042	8.340172e-01	10	none	NaN	NaN
124	1	89	40	bathroom	sun_aofnryafpsjimzsb.tif	408993.023668	408993.273768	408994.020277	6.505334e-01	30	none	NaN	NaN
124	1	90	39	bathroom	sun_anryaplzeujmzfkd.tif	408994.791775	408995.041995	408995.788390	6.838941e-01	29	none	NaN	NaN
124	1	91	43	bathroom	sun_apjevzvycyhuqghb.tif	408996.559900	408996.810233	408997.556563	8.340172e-01	33	none	NaN	NaN
124	1	92	34	bathroom	sun_alkosphxlxwjwgjd.tif	408998.327989	408998.578302	408999.324492	6.672138e-01	24	none	NaN	NaN
124	1	93	41	bathroom	sun_aoybiabnpadelefl.tif	409000.096131	409000.346310	409001.092607	8.340172e-01	31	none	NaN	NaN
124	1	94	46	bathroom	sun_apmqjbnwghzuhhzh.tif	409001.864178	409002.114532	409002.860656	6.672138e-01	36	none	NaN	NaN
124	1	95	57	bathroom	sun_axldvoqbuvuggfmq.tif	409003.632299	409003.882587	409004.628829	8.506975e-01	47	none	NaN	NaN
124	1	96	31	bathroom	sun_akiytfaagpdsphgz.tif	409005.400395	409005.650686	409006.396924	7.506155e-01	21	37	409007.940603	1
124	1	97	37	bathroom	sun_amzlamotzwfkwjco.tif	409008.736452	409008.986551	409009.733069	7.172548e-01	27	none	NaN	NaN
124	1	98	29	bathroom	sun_ahqjwnzgolcaoidx.tif	409010.504552	409010.754839	409011.501220	7.672958e-01	19	none	NaN	NaN
124	1	99	52	bathroom	sun_aunuadmjocsddsrl.tif	409012.272654	409012.522983	409013.269258	8.006565e-01	42	none	NaN	NaN
124	1	100	48	bathroom	sun_aqrpegblszgcoujh.tif	409014.040747	409014.291033	409015.037304	6.672138e-01	38	none	NaN	NaN
124	2	1	62	kitchen	labelme_kxvouciolcpqplr.tif	409064.214921	409064.464996	409065.161409	8.340172e-01	52	none	NaN	NaN
124	2	2	82	kitchen	sun_aenotlpyftoioydp.tif	409065.932959	409066.183230	409066.879498	7.005744e-01	72	none	NaN	NaN
124	2	3	80	kitchen	sun_aegoxogugdkwpmpj.tif	409067.651019	409067.901213	409068.597501	8.340172e-01	70	none	NaN	NaN
124	2	4	84	kitchen	sun_aexklacwqwezaorf.tif	409069.369080	409069.619279	409070.315703	7.506155e-01	74	none	NaN	NaN
124	2	5	88	kitchen	sun_agubuxuukhzyzpdp.tif	409071.087122	409071.337300	409072.033665	7.506155e-01	78	none	NaN	NaN
124	2	6	85	kitchen	sun_afuyedyxivkhecmu.tif	409072.805208	409073.055437	409073.751821	8.006565e-01	75	37	409074.740359	1
124	2	7	73	kitchen	sun_abrcnpqqhmjwekyf.tif	409075.540745	409075.790919	409076.487184	7.672958e-01	63	none	NaN	NaN
124	2	8	99	kitchen	sun_akcjzhbbjlbogpdi.tif	409077.258833	409077.509122	409078.205376	7.339351e-01	89	none	NaN	NaN
124	2	9	75	kitchen	sun_acgtpgfybqjmzeyw.tif	409078.976884	409079.227120	409079.923407	7.672958e-01	65	none	NaN	NaN
124	2	10	92	kitchen	sun_ahpczsiumwwocjkv.tif	409080.694954	409080.945091	409081.641519	7.672958e-01	82	none	NaN	NaN
124	2	11	67	kitchen	sun_aarfiyshqohlwkmo.tif	409082.413031	409082.663295	409083.359544	7.506155e-01	57	37	409084.188646	1
124	2	12	89	kitchen	sun_agzzivivdpnawacl.tif	409084.981781	409085.232058	409085.928382	7.172548e-01	79	none	NaN	NaN
124	2	13	87	kitchen	sun_agorklincwxrdtga.tif	409086.699838	409086.950000	409087.646462	8.340172e-01	77	none	NaN	NaN
124	2	14	70	kitchen	sun_abdxkyyxwfskuaqb.tif	409088.417897	409088.668192	409089.364427	7.005744e-01	60	none	NaN	NaN
124	2	15	69	kitchen	sun_abdenxonkemggwsq.tif	409090.135954	409090.386296	409091.082407	6.505334e-01	59	none	NaN	NaN
124	2	16	66	kitchen	sun_aapllqyqlykszopd.tif	409091.854022	409092.104138	409092.800495	7.339351e-01	56	39	409094.020547	1
124	2	17	104	kitchen	sun_auticobqsbwgoppi.tif	409094.823096	409095.073226	409095.769725	8.006565e-01	94	none	NaN	NaN
124	2	18	90	kitchen	sun_ahdycvpopffkzzsu.tif	409096.541168	409096.791477	409097.487644	6.838941e-01	80	none	NaN	NaN
124	2	19	96	kitchen	sun_ajcbwwvdlsvjyzje.tif	409098.259231	409098.509562	409099.205792	7.005744e-01	86	none	NaN	NaN
124	2	20	65	kitchen	sun_aamedkxepzlwuxes.tif	409099.977298	409100.227492	409100.923742	7.005744e-01	55	none	NaN	NaN
124	2	21	106	kitchen	sun_awcpdzzznmweyyhv.tif	409101.695355	409101.945484	409102.641852	7.672958e-01	96	none	NaN	NaN
124	2	22	83	kitchen	sun_aeqdocilnnpuvuhx.tif	409103.413429	409103.663611	409104.359912	8.340172e-01	73	none	NaN	NaN
124	2	23	64	kitchen	sun_aadbddgrdsjugojn.tif	409105.131484	409105.381619	409106.078099	7.839762e-01	54	none	NaN	NaN
124	2	24	61	kitchen	labelme_brsyyvweiuaazfr.tif	409106.849564	409107.099904	409107.796095	7.172548e-01	51	none	NaN	NaN
124	2	25	107	kitchen	sun_axyyrmzcupyhlivc.tif	409108.567602	409108.817787	409109.514072	7.339351e-01	97	none	NaN	NaN
124	2	26	91	kitchen	sun_ahljzhgcdpomplvg.tif	409110.285693	409110.535997	409111.232107	6.672138e-01	81	none	NaN	NaN
124	2	27	94	kitchen	sun_ahywdevtimnqcsln.tif	409112.003732	409112.253925	409112.950300	7.506155e-01	84	none	NaN	NaN
124	2	28	78	kitchen	sun_adgqasybjyktddhj.tif	409113.721800	409113.971926	409114.668340	7.339351e-01	68	none	NaN	NaN
124	2	29	102	kitchen	sun_auaiucuqpdausiva.tif	409115.439816	409115.690080	409116.386422	7.005744e-01	92	none	NaN	NaN
124	2	30	95	kitchen	sun_aixorpehvfykdynp.tif	409117.157920	409117.408098	409118.104504	6.672138e-01	85	none	NaN	NaN
124	2	31	81	kitchen	sun_aehawpgmrlhlvcow.tif	409118.875983	409119.126126	409119.822528	7.005744e-01	71	39	409120.964455	1
124	2	32	74	kitchen	sun_acfmftudsenhrfhy.tif	409121.761676	409122.011961	409122.708106	8.340172e-01	64	37	409124.532563	1
124	2	33	72	kitchen	sun_abpwyqmlzafvklqo.tif	409125.331243	409125.581513	409126.277854	7.172548e-01	62	none	NaN	NaN
124	2	34	109	kitchen	sun_aypmqwcualkenuoe.tif	409127.049308	409127.299602	409127.995758	7.172548e-01	99	37	409130.396323	1
124	2	35	63	kitchen	labelme_rykdqxenmhulbdn.tif	409131.186022	409131.436289	409132.132550	7.839762e-01	53	none	NaN	NaN
124	2	36	105	kitchen	sun_avszsnwsbuqfgzbn.tif	409132.904072	409133.154394	409133.850641	7.005744e-01	95	none	NaN	NaN
124	2	37	98	kitchen	sun_akchetnepxlcxhsu.tif	409134.622120	409134.872288	409135.568581	8.173369e-01	88	none	NaN	NaN
124	2	38	86	kitchen	sun_aggjlwcdjsjcaemh.tif	409136.340202	409136.590488	409137.286677	6.672138e-01	76	none	NaN	NaN
124	2	39	68	kitchen	sun_aaxxjlsuzvqlgylf.tif	409138.058260	409138.308469	409139.004753	7.506155e-01	58	none	NaN	NaN
124	2	40	71	kitchen	sun_abftihopvusyfakt.tif	409139.776325	409140.026498	409140.722798	8.340172e-01	61	none	NaN	NaN
124	2	41	93	kitchen	sun_ahspylgoovwmwvgk.tif	409141.494382	409141.744647	409142.440876	7.672958e-01	83	39	409143.332564	1
124	2	42	100	kitchen	sun_amjjdeyrggfqgmom.tif	409144.129856	409144.380195	409145.076408	8.173369e-01	90	none	NaN	NaN
124	2	43	108	kitchen	sun_aymvwlarqodbwuoc.tif	409145.847926	409146.098126	409146.794369	6.672138e-01	98	none	NaN	NaN
124	2	44	76	kitchen	sun_acwjdupvyjsugpay.tif	409147.565992	409147.816111	409148.512417	7.839762e-01	66	none	NaN	NaN
124	2	45	97	kitchen	sun_ajkqhtgcbgpcwrwn.tif	409149.284058	409149.534399	409150.230664	7.672958e-01	87	none	NaN	NaN
124	2	46	79	kitchen	sun_admlmbcdswaszruo.tif	409151.002114	409151.252252	409151.948695	8.173369e-01	69	none	NaN	NaN
124	2	47	77	kitchen	sun_acxkpeoqbwcxfvip.tif	409152.720185	409152.970315	409153.666694	7.839762e-01	67	none	NaN	NaN
124	2	48	103	kitchen	sun_aunzlwrbjumxhwdj.tif	409154.438233	409154.688385	409155.384704	7.839762e-01	93	none	NaN	NaN
124	2	49	110	kitchen	sun_azmutvzbxypaceni.tif	409156.156306	409156.406557	409157.102751	8.006565e-01	100	none	NaN	NaN
124	2	50	101	kitchen	sun_aqeaevwwwjoqhzvl.tif	409157.874368	409158.124604	409158.820870	7.172548e-01	91	none	NaN	NaN
124	2	51	88	kitchen	sun_agubuxuukhzyzpdp.tif	409159.592418	409159.842565	409160.538941	8.173369e-01	78	none	NaN	NaN
124	2	52	92	kitchen	sun_ahpczsiumwwocjkv.tif	409161.310494	409161.560668	409162.256957	6.838941e-01	82	39	409163.076262	1
124	2	53	66	kitchen	sun_aapllqyqlykszopd.tif	409163.879250	409164.129544	409164.825696	8.006565e-01	56	none	NaN	NaN
124	2	54	102	kitchen	sun_auaiucuqpdausiva.tif	409165.597322	409165.847595	409166.543729	7.839762e-01	92	37	409167.420651	1
124	2	55	78	kitchen	sun_adgqasybjyktddhj.tif	409168.216100	409168.466212	409169.162729	8.006565e-01	68	none	NaN	NaN
124	2	56	68	kitchen	sun_aaxxjlsuzvqlgylf.tif	409169.934172	409170.184385	409170.880727	6.838941e-01	58	none	NaN	NaN
124	2	57	62	kitchen	labelme_kxvouciolcpqplr.tif	409171.652250	409171.902511	409172.598728	6.672138e-01	52	none	NaN	NaN
124	2	58	100	kitchen	sun_amjjdeyrggfqgmom.tif	409173.370305	409173.620438	409174.316863	6.838941e-01	90	none	NaN	NaN
124	2	59	74	kitchen	sun_acfmftudsenhrfhy.tif	409175.088345	409175.338560	409176.034946	7.172548e-01	64	none	NaN	NaN
124	2	60	109	kitchen	sun_aypmqwcualkenuoe.tif	409176.806428	409177.056592	409177.753025	8.506975e-01	99	none	NaN	NaN
124	2	61	105	kitchen	sun_avszsnwsbuqfgzbn.tif	409178.524495	409178.774824	409179.471051	7.506155e-01	95	none	NaN	NaN
124	2	62	67	kitchen	sun_aarfiyshqohlwkmo.tif	409180.242554	409180.492849	409181.189096	6.838941e-01	57	none	NaN	NaN
124	2	63	83	kitchen	sun_aeqdocilnnpuvuhx.tif	409181.960632	409182.210945	409182.907173	6.672138e-01	73	none	NaN	NaN
124	2	64	90	kitchen	sun_ahdycvpopffkzzsu.tif	409183.678676	409183.928988	409184.625088	6.838941e-01	80	none	NaN	NaN
124	2	65	75	kitchen	sun_acgtpgfybqjmzeyw.tif	409185.396751	409185.646951	409186.343236	7.839762e-01	65	none	NaN	NaN
124	2	66	101	kitchen	sun_aqeaevwwwjoqhzvl.tif	409187.114814	409187.365021	409188.061329	7.672958e-01	91	none	NaN	NaN
124	2	67	82	kitchen	sun_aenotlpyftoioydp.tif	409188.832860	409189.083078	409189.779413	6.838941e-01	72	39	409190.724437	1
124	2	68	97	kitchen	sun_ajkqhtgcbgpcwrwn.tif	409191.518394	409191.768691	409192.464998	7.005744e-01	87	none	NaN	NaN
124	2	69	77	kitchen	sun_acxkpeoqbwcxfvip.tif	409193.236433	409193.486800	409194.182968	7.339351e-01	67	none	NaN	NaN
124	2	70	63	kitchen	labelme_rykdqxenmhulbdn.tif	409194.954547	409195.204836	409195.900990	7.339351e-01	53	none	NaN	NaN
124	2	71	87	kitchen	sun_agorklincwxrdtga.tif	409196.672588	409196.922814	409197.618995	8.340172e-01	77	none	NaN	NaN
124	2	72	84	kitchen	sun_aexklacwqwezaorf.tif	409198.390649	409198.640894	409199.337080	7.672958e-01	74	none	NaN	NaN
124	2	73	94	kitchen	sun_ahywdevtimnqcsln.tif	409200.108695	409200.358836	409201.055182	7.005744e-01	84	37	409201.972591	1
124	2	74	65	kitchen	sun_aamedkxepzlwuxes.tif	409202.760861	409203.011212	409203.707321	8.506975e-01	55	none	NaN	NaN
124	2	75	96	kitchen	sun_ajcbwwvdlsvjyzje.tif	409204.478915	409204.729052	409205.425380	7.506155e-01	86	39	409206.140219	1
124	2	76	106	kitchen	sun_awcpdzzznmweyyhv.tif	409206.930917	409207.181223	409207.877517	8.006565e-01	96	none	NaN	NaN
124	2	77	80	kitchen	sun_aegoxogugdkwpmpj.tif	409208.665652	409208.915898	409209.612082	8.340172e-01	70	37	409210.404416	1
124	2	78	95	kitchen	sun_aixorpehvfykdynp.tif	409211.201058	409211.451355	409212.147642	7.339351e-01	85	none	NaN	NaN
124	2	79	81	kitchen	sun_aehawpgmrlhlvcow.tif	409212.919105	409213.169397	409213.865729	8.173369e-01	71	none	NaN	NaN
124	2	80	76	kitchen	sun_acwjdupvyjsugpay.tif	409214.637194	409214.887511	409215.583627	6.505334e-01	66	39	409216.252352	1
124	2	81	61	kitchen	labelme_brsyyvweiuaazfr.tif	409217.055830	409217.305919	409218.002373	8.006565e-01	51	none	NaN	NaN
124	2	82	98	kitchen	sun_akchetnepxlcxhsu.tif	409218.773893	409219.024068	409219.720362	8.006565e-01	88	none	NaN	NaN
124	2	83	91	kitchen	sun_ahljzhgcdpomplvg.tif	409220.491933	409220.742214	409221.438432	6.505334e-01	81	none	NaN	NaN
124	2	84	72	kitchen	sun_abpwyqmlzafvklqo.tif	409222.210001	409222.460309	409223.156599	6.505334e-01	62	none	NaN	NaN
124	2	85	107	kitchen	sun_axyyrmzcupyhlivc.tif	409223.928047	409224.178293	409224.874657	7.506155e-01	97	39	409225.628445	1
124	2	86	104	kitchen	sun_auticobqsbwgoppi.tif	409226.430112	409226.680324	409227.376631	6.838941e-01	94	none	NaN	NaN
124	2	87	108	kitchen	sun_aymvwlarqodbwuoc.tif	409228.148182	409228.398389	409229.094776	7.172548e-01	98	none	NaN	NaN
124	2	88	93	kitchen	sun_ahspylgoovwmwvgk.tif	409229.866234	409230.116336	409230.812694	8.173369e-01	83	none	NaN	NaN
124	2	89	86	kitchen	sun_aggjlwcdjsjcaemh.tif	409231.584288	409231.834449	409232.530740	8.173369e-01	76	none	NaN	NaN
124	2	90	103	kitchen	sun_aunzlwrbjumxhwdj.tif	409233.302361	409233.552617	409234.248868	6.505334e-01	93	none	NaN	NaN
124	2	91	73	kitchen	sun_abrcnpqqhmjwekyf.tif	409235.020409	409235.270648	409235.966930	7.339351e-01	63	none	NaN	NaN
124	2	92	89	kitchen	sun_agzzivivdpnawacl.tif	409236.738498	409236.988839	409237.685070	7.672958e-01	79	none	NaN	NaN
124	2	93	71	kitchen	sun_abftihopvusyfakt.tif	409238.456569	409238.706875	409239.403020	6.672138e-01	61	none	NaN	NaN
124	2	94	85	kitchen	sun_afuyedyxivkhecmu.tif	409240.174615	409240.424710	409241.121162	8.506975e-01	75	none	NaN	NaN
124	2	95	64	kitchen	sun_aadbddgrdsjugojn.tif	409241.892679	409242.143009	409242.839139	6.672138e-01	54	none	NaN	NaN
124	2	96	110	kitchen	sun_azmutvzbxypaceni.tif	409243.610748	409243.877583	409244.557347	8.506975e-01	100	none	NaN	NaN
124	2	97	70	kitchen	sun_abdxkyyxwfskuaqb.tif	409245.328792	409245.578976	409246.275351	8.340172e-01	60	none	NaN	NaN
124	2	98	99	kitchen	sun_akcjzhbbjlbogpdi.tif	409247.046869	409247.296975	409247.993338	7.839762e-01	89	none	NaN	NaN
124	2	99	79	kitchen	sun_admlmbcdswaszruo.tif	409248.764925	409249.015088	409249.711445	8.173369e-01	69	none	NaN	NaN
124	2	100	69	kitchen	sun_abdenxonkemggwsq.tif	409250.482991	409250.733291	409251.429484	7.172548e-01	59	none	NaN	NaN
124	3	1	27	bathroom	sun_ahcvzmoyaycdoftf.tif	409280.006983	409280.257225	409281.086911	8.173369e-01	17	none	NaN	NaN
124	3	2	21	bathroom	sun_aggnnqpdorgxpvce.tif	409281.858511	409282.125346	409282.938461	6.838941e-01	11	39	409284.044457	1
124	3	3	19	bathroom	sun_aclfzgynxzxlbepz.tif	409284.844263	409285.094539	409285.924132	8.340172e-01	9	none	NaN	NaN
124	3	4	46	bathroom	sun_apmqjbnwghzuhhzh.tif	409286.695751	409286.945852	409287.775827	7.005744e-01	36	none	NaN	NaN
124	3	5	17	bathroom	sun_acegryoqftbzowsg.tif	409288.547312	409288.797076	409289.627240	8.506975e-01	7	none	NaN	NaN
124	3	6	34	bathroom	sun_alkosphxlxwjwgjd.tif	409290.398824	409290.648997	409291.478878	7.339351e-01	24	none	NaN	NaN
124	3	7	18	bathroom	sun_acgyywnybuveqsro.tif	409292.250298	409292.500593	409293.330158	7.005744e-01	8	none	NaN	NaN
124	3	8	38	bathroom	sun_anhioqovhscjqqwb.tif	409294.101793	409294.351987	409295.181754	6.838941e-01	28	none	NaN	NaN
124	3	9	50	bathroom	sun_aspsyogrekjtfozg.tif	409295.953300	409296.203571	409297.033151	8.340172e-01	40	none	NaN	NaN
124	3	10	29	bathroom	sun_ahqjwnzgolcaoidx.tif	409297.804795	409298.054983	409298.884679	7.172548e-01	19	37	409299.620321	1
124	3	11	53	bathroom	sun_ausgutylgojavyoq.tif	409300.423584	409300.673731	409301.503583	6.672138e-01	43	none	NaN	NaN
124	3	12	59	bathroom	sun_axyrejkiiaqiurjk.tif	409302.275104	409302.525291	409303.355044	7.839762e-01	49	none	NaN	NaN
124	3	13	24	bathroom	sun_agrwbmhcpmfuwmsg.tif	409304.126619	409304.376919	409305.206615	8.006565e-01	14	none	NaN	NaN
124	3	14	58	bathroom	sun_axxbkopsgyouuebh.tif	409305.978127	409306.228336	409307.058014	7.506155e-01	48	none	NaN	NaN
124	3	15	31	bathroom	sun_akiytfaagpdsphgz.tif	409307.829615	409308.079858	409308.909676	6.838941e-01	21	none	NaN	NaN
124	3	16	13	bathroom	sun_aavhrsfjbserjtht.tif	409309.681101	409309.931241	409310.761044	7.506155e-01	3	none	NaN	NaN
124	3	17	54	bathroom	sun_auzqhkafidnkrwmo.tif	409311.532626	409311.782804	409312.612633	8.340172e-01	44	37	409313.260478	1
124	3	18	37	bathroom	sun_amzlamotzwfkwjco.tif	409314.051355	409314.301591	409315.131228	7.339351e-01	27	none	NaN	NaN
124	3	19	49	bathroom	sun_asfwthctfqerjvxr.tif	409315.902848	409316.153132	409316.982791	7.172548e-01	39	none	NaN	NaN
124	3	20	45	bathroom	sun_apkxzenqapsujocq.tif	409317.754364	409318.004578	409318.834253	6.838941e-01	35	none	NaN	NaN
124	3	21	39	bathroom	sun_anryaplzeujmzfkd.tif	409319.605867	409319.856189	409320.685871	6.505334e-01	29	none	NaN	NaN
124	3	22	51	bathroom	sun_atstyziqcmkahyxk.tif	409321.457377	409321.707605	409322.537402	7.672958e-01	41	none	NaN	NaN
124	3	23	30	bathroom	sun_ajlawzvmubibwbpy.tif	409323.308880	409323.559068	409324.388839	6.838941e-01	20	none	NaN	NaN
124	3	24	33	bathroom	sun_aljolscmmzydegqp.tif	409325.160370	409325.410540	409326.240416	7.839762e-01	23	none	NaN	NaN
124	3	25	20	bathroom	sun_afcoljnjfoxjtgja.tif	409327.011884	409327.262199	409328.091785	6.672138e-01	10	none	NaN	NaN
124	3	26	60	bathroom	sun_azqyogdvyhahyram.tif	409328.863478	409329.130235	409329.943416	8.173369e-01	50	none	NaN	NaN
124	3	27	22	bathroom	sun_agguqiubmwhqqunb.tif	409330.714869	409330.964981	409331.794875	7.672958e-01	12	37	409332.948333	0
124	3	28	55	bathroom	sun_avhrdrntsqrjzccq.tif	409333.750690	409334.000985	409334.830674	7.172548e-01	45	none	NaN	NaN
124	3	29	52	bathroom	sun_aunuadmjocsddsrl.tif	409335.602184	409335.869002	409336.682127	7.005744e-01	42	none	NaN	NaN
124	3	30	14	bathroom	sun_abapwbhyhkfixyex.tif	409337.453690	409337.703928	409338.533690	8.006565e-01	4	none	NaN	NaN
124	3	31	35	bathroom	sun_alotolagknyrgtsk.tif	409339.305202	409339.555341	409340.385183	7.839762e-01	25	39	409341.244353	1
124	3	32	11	bathroom	labelme_sfxiulhjbhlyiyt.tif	409342.040768	409342.290875	409343.120783	7.339351e-01	1	none	NaN	NaN
124	3	33	48	bathroom	sun_aqrpegblszgcoujh.tif	409343.892268	409344.142466	409344.972233	8.340172e-01	38	none	NaN	NaN
124	3	34	28	bathroom	sun_ahijqszoswveeyji.tif	409345.743770	409345.993981	409346.823819	7.506155e-01	18	39	409348.580480	1
124	3	35	57	bathroom	sun_axldvoqbuvuggfmq.tif	409349.380059	409349.630270	409350.460016	8.006565e-01	47	none	NaN	NaN
124	3	36	26	bathroom	sun_ahaulkltgpkeeemi.tif	409351.231557	409351.481852	409352.311616	7.339351e-01	16	none	NaN	NaN
124	3	37	23	bathroom	sun_aghyqhbptboemmoq.tif	409353.083093	409353.333264	409354.162995	8.173369e-01	13	none	NaN	NaN
124	3	38	47	bathroom	sun_apynckhmoftszqoq.tif	409354.934571	409355.184766	409356.014439	7.506155e-01	37	none	NaN	NaN
124	3	39	42	bathroom	sun_apeeialkgkuxddgh.tif	409356.786098	409357.036268	409357.866162	7.672958e-01	32	39	409359.004143	1
124	3	40	25	bathroom	sun_agyqfjcfkdcydepw.tif	409359.805210	409360.055380	409360.885217	6.838941e-01	15	none	NaN	NaN
124	3	41	32	bathroom	sun_aleqenyvunhactkl.tif	409361.656711	409361.906901	409362.736617	7.506155e-01	22	39	409363.772368	1
124	3	42	12	bathroom	sun_aapitsgbtktqubfy.tif	409364.575756	409364.826069	409365.655793	8.006565e-01	2	none	NaN	NaN
124	3	43	36	bathroom	sun_ambriybtogmepttm.tif	409366.427256	409366.677445	409367.507303	7.005744e-01	26	none	NaN	NaN
124	3	44	44	bathroom	sun_apkruvsevgegsdwp.tif	409368.278770	409368.528835	409369.358726	8.506975e-01	34	none	NaN	NaN
124	3	45	56	bathroom	sun_awnqiikzaispgmwo.tif	409370.130258	409370.380389	409371.210221	6.672138e-01	46	none	NaN	NaN
124	3	46	15	bathroom	sun_abjtwfukuwddzted.tif	409371.981764	409372.231915	409373.061824	8.506975e-01	5	none	NaN	NaN
124	3	47	16	bathroom	sun_acduarbnmmoglmiv.tif	409373.833274	409374.083542	409374.913201	7.005744e-01	6	none	NaN	NaN
124	3	48	43	bathroom	sun_apjevzvycyhuqghb.tif	409375.684793	409375.935049	409376.764719	7.839762e-01	33	none	NaN	NaN
124	3	49	40	bathroom	sun_aofnryafpsjimzsb.tif	409377.536289	409377.786391	409378.616204	6.672138e-01	30	none	NaN	NaN
124	3	50	41	bathroom	sun_aoybiabnpadelefl.tif	409379.387778	409379.637948	409380.467774	6.672138e-01	31	none	NaN	NaN
124	3	51	27	bathroom	sun_ahcvzmoyaycdoftf.tif	409381.239291	409381.489612	409382.319160	8.340172e-01	17	37	409383.036302	1
124	3	52	36	bathroom	sun_ambriybtogmepttm.tif	409383.824757	409384.074894	409384.904775	8.340172e-01	26	none	NaN	NaN
124	3	53	37	bathroom	sun_amzlamotzwfkwjco.tif	409385.676239	409385.926441	409386.756211	8.006565e-01	27	none	NaN	NaN
124	3	54	14	bathroom	sun_abapwbhyhkfixyex.tif	409387.527756	409387.777961	409388.607720	8.006565e-01	4	none	NaN	NaN
124	3	55	40	bathroom	sun_aofnryafpsjimzsb.tif	409389.379243	409389.629410	409390.459146	7.172548e-01	30	none	NaN	NaN
124	3	56	41	bathroom	sun_aoybiabnpadelefl.tif	409391.230744	409391.481027	409392.310641	6.672138e-01	31	none	NaN	NaN
124	3	57	39	bathroom	sun_anryaplzeujmzfkd.tif	409393.082263	409393.332609	409394.162212	6.838941e-01	29	none	NaN	NaN
124	3	58	43	bathroom	sun_apjevzvycyhuqghb.tif	409394.933760	409395.184094	409396.013769	7.005744e-01	33	none	NaN	NaN
124	3	59	60	bathroom	sun_azqyogdvyhahyram.tif	409396.785268	409397.035641	409397.865197	7.005744e-01	50	39	409398.772325	1
124	3	60	38	bathroom	sun_anhioqovhscjqqwb.tif	409399.570864	409399.821161	409400.650754	7.172548e-01	28	none	NaN	NaN
124	3	61	12	bathroom	sun_aapitsgbtktqubfy.tif	409401.422365	409401.672534	409402.502332	7.339351e-01	2	none	NaN	NaN
124	3	62	11	bathroom	labelme_sfxiulhjbhlyiyt.tif	409403.273885	409403.524249	409404.353829	7.672958e-01	1	none	NaN	NaN
124	3	63	30	bathroom	sun_ajlawzvmubibwbpy.tif	409405.125398	409405.375519	409406.205476	8.173369e-01	20	none	NaN	NaN
124	3	64	28	bathroom	sun_ahijqszoswveeyji.tif	409406.976892	409407.226697	409408.056813	6.505334e-01	18	none	NaN	NaN
124	3	65	48	bathroom	sun_aqrpegblszgcoujh.tif	409408.828388	409409.078664	409409.908387	7.506155e-01	38	none	NaN	NaN
124	3	66	25	bathroom	sun_agyqfjcfkdcydepw.tif	409410.679901	409410.930247	409411.759763	7.506155e-01	15	none	NaN	NaN
124	3	67	23	bathroom	sun_aghyqhbptboemmoq.tif	409412.531413	409412.781620	409413.611474	7.005744e-01	13	none	NaN	NaN
124	3	68	16	bathroom	sun_acduarbnmmoglmiv.tif	409414.382899	409414.633108	409415.462967	7.339351e-01	6	none	NaN	NaN
124	3	69	58	bathroom	sun_axxbkopsgyouuebh.tif	409416.234411	409416.484501	409417.314293	8.340172e-01	48	none	NaN	NaN
124	3	70	21	bathroom	sun_aggnnqpdorgxpvce.tif	409418.085948	409418.336043	409419.165977	8.173369e-01	11	none	NaN	NaN
124	3	71	26	bathroom	sun_ahaulkltgpkeeemi.tif	409419.937432	409420.187660	409421.017481	8.006565e-01	16	none	NaN	NaN
124	3	72	34	bathroom	sun_alkosphxlxwjwgjd.tif	409421.788929	409422.039046	409422.868904	6.505334e-01	24	none	NaN	NaN
124	3	73	52	bathroom	sun_aunuadmjocsddsrl.tif	409423.640436	409423.890745	409424.720302	6.672138e-01	42	none	NaN	NaN
124	3	74	15	bathroom	sun_abjtwfukuwddzted.tif	409425.491940	409425.742255	409426.571887	7.672958e-01	5	none	NaN	NaN
124	3	75	13	bathroom	sun_aavhrsfjbserjtht.tif	409427.343461	409427.593639	409428.423430	7.672958e-01	3	none	NaN	NaN
124	3	76	46	bathroom	sun_apmqjbnwghzuhhzh.tif	409429.194961	409429.445051	409430.276050	8.340172e-01	36	none	NaN	NaN
124	3	77	59	bathroom	sun_axyrejkiiaqiurjk.tif	409431.063135	409431.313327	409432.143108	7.839762e-01	49	none	NaN	NaN
124	3	78	42	bathroom	sun_apeeialkgkuxddgh.tif	409432.914655	409433.165016	409433.994540	7.839762e-01	32	none	NaN	NaN
124	3	79	24	bathroom	sun_agrwbmhcpmfuwmsg.tif	409434.766150	409435.016499	409435.846125	8.006565e-01	14	none	NaN	NaN
124	3	80	35	bathroom	sun_alotolagknyrgtsk.tif	409436.617656	409436.867881	409437.697694	7.172548e-01	25	37	409438.548099	1
124	3	81	57	bathroom	sun_axldvoqbuvuggfmq.tif	409439.336537	409439.586727	409440.416557	8.173369e-01	47	none	NaN	NaN
124	3	82	32	bathroom	sun_aleqenyvunhactkl.tif	409441.188061	409441.438379	409442.267939	7.339351e-01	22	none	NaN	NaN
124	3	83	55	bathroom	sun_avhrdrntsqrjzccq.tif	409443.039538	409443.289659	409444.119455	7.839762e-01	45	37	409444.876472	1
124	3	84	22	bathroom	sun_agguqiubmwhqqunb.tif	409445.675013	409445.925281	409446.755012	6.505334e-01	12	none	NaN	NaN
124	3	85	45	bathroom	sun_apkxzenqapsujocq.tif	409447.526523	409447.776729	409448.606458	7.339351e-01	35	none	NaN	NaN
124	3	86	20	bathroom	sun_afcoljnjfoxjtgja.tif	409449.378024	409449.628197	409450.458076	7.839762e-01	10	37	409451.300289	1
124	3	87	19	bathroom	sun_aclfzgynxzxlbepz.tif	409452.096897	409452.347243	409453.176790	7.506155e-01	9	none	NaN	NaN
124	3	88	31	bathroom	sun_akiytfaagpdsphgz.tif	409453.948429	409454.198520	409455.028445	7.672958e-01	21	none	NaN	NaN
124	3	89	47	bathroom	sun_apynckhmoftszqoq.tif	409455.799919	409456.050194	409456.879885	8.506975e-01	37	none	NaN	NaN
124	3	90	17	bathroom	sun_acegryoqftbzowsg.tif	409457.651406	409457.901682	409458.731336	6.838941e-01	7	none	NaN	NaN
124	3	91	33	bathroom	sun_aljolscmmzydegqp.tif	409459.502930	409459.753242	409460.582885	7.172548e-01	23	none	NaN	NaN
124	3	92	51	bathroom	sun_atstyziqcmkahyxk.tif	409461.354441	409461.604569	409462.434494	6.672138e-01	41	37	409463.396360	1
124	3	93	54	bathroom	sun_auzqhkafidnkrwmo.tif	409464.190057	409464.440351	409465.269954	8.173369e-01	44	none	NaN	NaN
124	3	94	18	bathroom	sun_acgyywnybuveqsro.tif	409466.041577	409466.291889	409467.121581	7.005744e-01	8	none	NaN	NaN
124	3	95	50	bathroom	sun_aspsyogrekjtfozg.tif	409467.893080	409468.143364	409468.972975	7.172548e-01	40	none	NaN	NaN
124	3	96	53	bathroom	sun_ausgutylgojavyoq.tif	409469.744586	409469.994771	409470.824466	7.672958e-01	43	none	NaN	NaN
124	3	97	56	bathroom	sun_awnqiikzaispgmwo.tif	409471.596089	409471.846258	409472.675994	8.173369e-01	46	37	409473.700065	1
124	3	98	49	bathroom	sun_asfwthctfqerjvxr.tif	409474.498464	409474.749556	409475.578470	7.672958e-01	39	none	NaN	NaN
124	3	99	44	bathroom	sun_apkruvsevgegsdwp.tif	409476.349966	409476.600154	409477.430022	6.505334e-01	34	none	NaN	NaN
124	3	100	29	bathroom	sun_ahqjwnzgolcaoidx.tif	409478.201460	409478.451611	409479.281419	8.340172e-01	19	none	NaN	NaN
124	4	1	68	kitchen	sun_aaxxjlsuzvqlgylf.tif	409507.124965	409507.375242	409508.071438	7.172548e-01	58	none	NaN	NaN
124	4	2	77	kitchen	sun_acxkpeoqbwcxfvip.tif	409508.843043	409509.093319	409509.789459	7.005744e-01	67	none	NaN	NaN
124	4	3	79	kitchen	sun_admlmbcdswaszruo.tif	409510.561094	409510.810912	409511.507675	8.173369e-01	69	none	NaN	NaN
124	4	4	86	kitchen	sun_aggjlwcdjsjcaemh.tif	409512.279162	409512.529514	409513.225769	7.005744e-01	76	none	NaN	NaN
124	4	5	94	kitchen	sun_ahywdevtimnqcsln.tif	409513.997224	409514.247363	409514.943787	7.005744e-01	84	none	NaN	NaN
124	4	6	95	kitchen	sun_aixorpehvfykdynp.tif	409515.715295	409515.965521	409516.661842	6.672138e-01	85	none	NaN	NaN
124	4	7	75	kitchen	sun_acgtpgfybqjmzeyw.tif	409517.433421	409517.683480	409518.379886	7.506155e-01	65	none	NaN	NaN
124	4	8	88	kitchen	sun_agubuxuukhzyzpdp.tif	409519.151444	409519.401651	409520.097890	6.672138e-01	78	none	NaN	NaN
124	4	9	85	kitchen	sun_afuyedyxivkhecmu.tif	409520.869511	409521.119295	409521.815950	7.839762e-01	75	37	409522.676233	1
124	4	10	104	kitchen	sun_auticobqsbwgoppi.tif	409523.471593	409523.721773	409524.418107	7.672958e-01	94	37	409526.060032	0
124	4	11	72	kitchen	sun_abpwyqmlzafvklqo.tif	409526.857685	409527.107832	409527.804391	7.839762e-01	62	none	NaN	NaN
124	4	12	66	kitchen	sun_aapllqyqlykszopd.tif	409528.575749	409528.825547	409529.522300	7.172548e-01	56	none	NaN	NaN
124	4	13	69	kitchen	sun_abdenxonkemggwsq.tif	409530.293804	409530.544116	409531.240269	8.173369e-01	59	39	409532.276311	1
124	4	14	108	kitchen	sun_aymvwlarqodbwuoc.tif	409533.079410	409533.329634	409534.026024	6.838941e-01	98	none	NaN	NaN
124	4	15	105	kitchen	sun_avszsnwsbuqfgzbn.tif	409534.797470	409535.047767	409535.744073	7.506155e-01	95	none	NaN	NaN
124	4	16	78	kitchen	sun_adgqasybjyktddhj.tif	409536.515547	409536.765896	409537.461986	8.006565e-01	68	none	NaN	NaN
124	4	17	101	kitchen	sun_aqeaevwwwjoqhzvl.tif	409538.233596	409538.483761	409539.180041	8.506975e-01	91	39	409540.092169	1
124	4	18	99	kitchen	sun_akcjzhbbjlbogpdi.tif	409540.885760	409541.135909	409541.832350	6.838941e-01	89	none	NaN	NaN
124	4	19	90	kitchen	sun_ahdycvpopffkzzsu.tif	409542.603801	409542.853967	409543.550388	7.506155e-01	80	none	NaN	NaN
124	4	20	70	kitchen	sun_abdxkyyxwfskuaqb.tif	409544.321919	409544.572210	409545.268487	8.340172e-01	60	none	NaN	NaN
124	4	21	81	kitchen	sun_aehawpgmrlhlvcow.tif	409546.039944	409546.290200	409546.986467	8.006565e-01	71	37	409551.860381	0
124	4	22	106	kitchen	sun_awcpdzzznmweyyhv.tif	409552.661992	409552.912131	409553.608439	8.006565e-01	96	none	NaN	NaN
124	4	23	93	kitchen	sun_ahspylgoovwmwvgk.tif	409554.380059	409554.630381	409555.326535	6.505334e-01	83	none	NaN	NaN
124	4	24	97	kitchen	sun_ajkqhtgcbgpcwrwn.tif	409556.098144	409556.348279	409557.044728	7.172548e-01	87	none	NaN	NaN
124	4	25	91	kitchen	sun_ahljzhgcdpomplvg.tif	409557.816181	409558.066456	409558.762651	7.339351e-01	81	none	NaN	NaN
124	4	26	96	kitchen	sun_ajcbwwvdlsvjyzje.tif	409559.534248	409559.784543	409560.480714	8.173369e-01	86	none	NaN	NaN
124	4	27	62	kitchen	labelme_kxvouciolcpqplr.tif	409561.252337	409561.502515	409562.198901	7.839762e-01	52	none	NaN	NaN
124	4	28	109	kitchen	sun_aypmqwcualkenuoe.tif	409562.970361	409563.220601	409563.916778	7.672958e-01	99	37	409564.820231	1
124	4	29	76	kitchen	sun_acwjdupvyjsugpay.tif	409565.622478	409565.872657	409566.568985	8.006565e-01	66	none	NaN	NaN
124	4	30	87	kitchen	sun_agorklincwxrdtga.tif	409567.340614	409567.590673	409568.287137	8.506975e-01	77	none	NaN	NaN
124	4	31	102	kitchen	sun_auaiucuqpdausiva.tif	409569.058664	409569.308837	409570.005108	8.340172e-01	92	none	NaN	NaN
124	4	32	110	kitchen	sun_azmutvzbxypaceni.tif	409570.776721	409571.026574	409571.723340	7.672958e-01	100	39	409572.740116	1
124	4	33	98	kitchen	sun_akchetnepxlcxhsu.tif	409573.528956	409573.779304	409574.475563	6.672138e-01	88	none	NaN	NaN
124	4	34	100	kitchen	sun_amjjdeyrggfqgmom.tif	409575.247029	409575.497356	409576.193627	7.339351e-01	90	39	409579.236092	0
124	4	35	107	kitchen	sun_axyyrmzcupyhlivc.tif	409580.034246	409580.284522	409580.980868	7.672958e-01	97	none	NaN	NaN
124	4	36	65	kitchen	sun_aamedkxepzlwuxes.tif	409581.752289	409582.002439	409582.698872	8.173369e-01	55	none	NaN	NaN
124	4	37	64	kitchen	sun_aadbddgrdsjugojn.tif	409583.470384	409583.720638	409584.416947	7.339351e-01	54	37	409585.220261	1
124	4	38	89	kitchen	sun_agzzivivdpnawacl.tif	409586.022461	409586.272753	409586.968876	8.340172e-01	79	none	NaN	NaN
124	4	39	103	kitchen	sun_aunzlwrbjumxhwdj.tif	409587.740496	409587.990719	409588.687128	6.838941e-01	93	none	NaN	NaN
124	4	40	71	kitchen	sun_abftihopvusyfakt.tif	409589.458580	409589.708761	409590.405092	7.506155e-01	61	none	NaN	NaN
124	4	41	83	kitchen	sun_aeqdocilnnpuvuhx.tif	409591.176657	409591.426842	409592.123274	6.505334e-01	73	none	NaN	NaN
124	4	42	73	kitchen	sun_abrcnpqqhmjwekyf.tif	409592.894719	409593.144998	409593.841165	6.505334e-01	63	none	NaN	NaN
124	4	43	84	kitchen	sun_aexklacwqwezaorf.tif	409594.612762	409594.863044	409595.559361	7.172548e-01	74	none	NaN	NaN
124	4	44	92	kitchen	sun_ahpczsiumwwocjkv.tif	409596.330835	409596.581181	409597.277376	7.672958e-01	82	none	NaN	NaN
124	4	45	82	kitchen	sun_aenotlpyftoioydp.tif	409598.048901	409598.299223	409598.995455	8.173369e-01	72	39	409600.012322	1
124	4	46	80	kitchen	sun_aegoxogugdkwpmpj.tif	409600.801091	409601.051368	409601.747669	6.838941e-01	70	none	NaN	NaN
124	4	47	61	kitchen	labelme_brsyyvweiuaazfr.tif	409602.519194	409602.769487	409603.465699	7.172548e-01	51	none	NaN	NaN
124	4	48	63	kitchen	labelme_rykdqxenmhulbdn.tif	409604.237260	409604.487413	409605.183773	8.173369e-01	53	37	409606.036282	1
124	4	49	67	kitchen	sun_aarfiyshqohlwkmo.tif	409606.839375	409607.089633	409607.785956	7.005744e-01	57	none	NaN	NaN
124	4	50	74	kitchen	sun_acfmftudsenhrfhy.tif	409608.557434	409608.807617	409609.503849	7.339351e-01	64	none	NaN	NaN
124	4	51	91	kitchen	sun_ahljzhgcdpomplvg.tif	409610.275489	409610.525715	409611.221913	7.839762e-01	81	none	NaN	NaN
124	4	52	85	kitchen	sun_afuyedyxivkhecmu.tif	409611.993564	409612.243779	409612.940152	8.340172e-01	75	none	NaN	NaN
124	4	53	78	kitchen	sun_adgqasybjyktddhj.tif	409613.711633	409613.961820	409614.658166	6.672138e-01	68	none	NaN	NaN
124	4	54	92	kitchen	sun_ahpczsiumwwocjkv.tif	409615.429692	409615.679796	409616.376137	6.672138e-01	82	none	NaN	NaN
124	4	55	87	kitchen	sun_agorklincwxrdtga.tif	409617.147752	409617.398045	409618.094248	8.173369e-01	77	none	NaN	NaN
124	4	56	102	kitchen	sun_auaiucuqpdausiva.tif	409618.865830	409619.116110	409619.812836	7.339351e-01	92	none	NaN	NaN
124	4	57	66	kitchen	sun_aapllqyqlykszopd.tif	409620.583888	409620.834123	409621.530388	8.006565e-01	56	39	409622.668289	1
124	4	58	106	kitchen	sun_awcpdzzznmweyyhv.tif	409623.469563	409623.719913	409624.415985	7.005744e-01	96	none	NaN	NaN
124	4	59	64	kitchen	sun_aadbddgrdsjugojn.tif	409625.187662	409625.437937	409626.134076	7.172548e-01	54	none	NaN	NaN
124	4	60	80	kitchen	sun_aegoxogugdkwpmpj.tif	409626.905691	409627.155885	409627.852109	6.672138e-01	70	none	NaN	NaN
124	4	61	73	kitchen	sun_abrcnpqqhmjwekyf.tif	409628.623748	409628.874044	409629.570177	7.672958e-01	63	none	NaN	NaN
124	4	62	105	kitchen	sun_avszsnwsbuqfgzbn.tif	409630.341814	409630.592075	409631.288326	7.339351e-01	95	none	NaN	NaN
124	4	63	62	kitchen	labelme_kxvouciolcpqplr.tif	409632.059903	409632.310163	409633.006474	7.172548e-01	52	none	NaN	NaN
124	4	64	89	kitchen	sun_agzzivivdpnawacl.tif	409633.777946	409634.028074	409634.724498	6.672138e-01	79	none	NaN	NaN
124	4	65	103	kitchen	sun_aunzlwrbjumxhwdj.tif	409635.495993	409635.746198	409636.442545	8.340172e-01	93	37	409638.188156	1
124	4	66	108	kitchen	sun_aymvwlarqodbwuoc.tif	409638.982175	409639.232224	409639.928672	8.340172e-01	98	none	NaN	NaN
124	4	67	72	kitchen	sun_abpwyqmlzafvklqo.tif	409640.700240	409640.950464	409641.646867	7.506155e-01	62	none	NaN	NaN
124	4	68	70	kitchen	sun_abdxkyyxwfskuaqb.tif	409642.418298	409642.668421	409643.364926	7.005744e-01	60	none	NaN	NaN
124	4	69	68	kitchen	sun_aaxxjlsuzvqlgylf.tif	409644.136354	409644.386521	409645.082967	6.838941e-01	58	37	409646.291951	1
124	4	70	110	kitchen	sun_azmutvzbxypaceni.tif	409647.088768	409647.338890	409648.035344	7.506155e-01	100	none	NaN	NaN
124	4	71	107	kitchen	sun_axyyrmzcupyhlivc.tif	409648.806814	409649.057118	409649.753329	7.005744e-01	97	none	NaN	NaN
124	4	72	97	kitchen	sun_ajkqhtgcbgpcwrwn.tif	409650.524892	409650.775238	409651.471440	7.339351e-01	87	none	NaN	NaN
124	4	73	65	kitchen	sun_aamedkxepzlwuxes.tif	409652.242948	409652.493302	409653.189512	7.672958e-01	55	39	409655.084139	1
124	4	74	99	kitchen	sun_akcjzhbbjlbogpdi.tif	409655.879240	409656.129461	409656.825841	6.838941e-01	89	none	NaN	NaN
124	4	75	94	kitchen	sun_ahywdevtimnqcsln.tif	409657.597287	409657.847581	409658.543769	7.839762e-01	84	none	NaN	NaN
124	4	76	83	kitchen	sun_aeqdocilnnpuvuhx.tif	409659.315376	409659.565504	409660.261975	8.340172e-01	73	none	NaN	NaN
124	4	77	86	kitchen	sun_aggjlwcdjsjcaemh.tif	409661.033431	409661.283665	409661.979841	6.672138e-01	76	none	NaN	NaN
124	4	78	95	kitchen	sun_aixorpehvfykdynp.tif	409662.751487	409663.001687	409663.697979	7.672958e-01	85	none	NaN	NaN
124	4	79	74	kitchen	sun_acfmftudsenhrfhy.tif	409664.469550	409664.719693	409665.416022	7.506155e-01	64	none	NaN	NaN
124	4	80	77	kitchen	sun_acxkpeoqbwcxfvip.tif	409666.187625	409666.437915	409667.134142	7.672958e-01	67	none	NaN	NaN
124	4	81	79	kitchen	sun_admlmbcdswaszruo.tif	409667.905686	409668.155864	409668.852118	8.006565e-01	69	none	NaN	NaN
124	4	82	84	kitchen	sun_aexklacwqwezaorf.tif	409669.623768	409669.874010	409670.570512	8.506975e-01	74	none	NaN	NaN
124	4	83	88	kitchen	sun_agubuxuukhzyzpdp.tif	409671.341808	409671.592115	409672.288219	8.006565e-01	78	none	NaN	NaN
124	4	84	109	kitchen	sun_aypmqwcualkenuoe.tif	409673.059869	409673.310108	409674.006354	8.506975e-01	99	none	NaN	NaN
124	4	85	63	kitchen	labelme_rykdqxenmhulbdn.tif	409674.777938	409675.028102	409675.724560	6.505334e-01	53	none	NaN	NaN
124	4	86	101	kitchen	sun_aqeaevwwwjoqhzvl.tif	409676.496019	409676.746280	409677.442642	8.340172e-01	91	none	NaN	NaN
124	4	87	93	kitchen	sun_ahspylgoovwmwvgk.tif	409678.214070	409678.464250	409679.160615	7.839762e-01	83	none	NaN	NaN
124	4	88	81	kitchen	sun_aehawpgmrlhlvcow.tif	409679.932175	409680.182251	409680.878771	7.339351e-01	71	none	NaN	NaN
124	4	89	90	kitchen	sun_ahdycvpopffkzzsu.tif	409681.650184	409681.900320	409682.596714	8.340172e-01	80	none	NaN	NaN
124	4	90	98	kitchen	sun_akchetnepxlcxhsu.tif	409683.368266	409683.618425	409684.314696	7.839762e-01	88	none	NaN	NaN
124	4	91	69	kitchen	sun_abdenxonkemggwsq.tif	409685.086312	409685.337726	409686.032744	6.838941e-01	59	none	NaN	NaN
124	4	92	96	kitchen	sun_ajcbwwvdlsvjyzje.tif	409686.804394	409687.054488	409687.750843	6.838941e-01	86	none	NaN	NaN
124	4	93	75	kitchen	sun_acgtpgfybqjmzeyw.tif	409688.522470	409688.772643	409689.468981	8.173369e-01	65	none	NaN	NaN
124	4	94	76	kitchen	sun_acwjdupvyjsugpay.tif	409690.240518	409690.490675	409691.187069	7.172548e-01	66	none	NaN	NaN
124	4	95	104	kitchen	sun_auticobqsbwgoppi.tif	409691.958566	409692.208804	409692.905157	8.006565e-01	94	none	NaN	NaN
124	4	96	82	kitchen	sun_aenotlpyftoioydp.tif	409693.676634	409693.926856	409694.623092	7.839762e-01	72	none	NaN	NaN
124	4	97	61	kitchen	labelme_brsyyvweiuaazfr.tif	409695.394702	409695.644996	409696.341301	7.005744e-01	51	none	NaN	NaN
124	4	98	71	kitchen	sun_abftihopvusyfakt.tif	409697.112770	409697.362901	409698.059217	6.505334e-01	61	none	NaN	NaN
124	4	99	67	kitchen	sun_aarfiyshqohlwkmo.tif	409698.830847	409699.081095	409699.777264	7.005744e-01	57	none	NaN	NaN
124	4	100	100	kitchen	sun_amjjdeyrggfqgmom.tif	409700.548900	409700.799165	409701.495532	7.506155e-01	90	none	NaN	NaN
124	5	1	47	bathroom	sun_apynckhmoftszqoq.tif	409836.159158	409836.409440	409837.122443	7.672958e-01	37	none	NaN	NaN
124	5	2	55	bathroom	sun_avhrdrntsqrjzccq.tif	409837.893894	409838.144105	409838.857166	6.505334e-01	45	39	409840.452101	1
124	5	3	45	bathroom	sun_apkxzenqapsujocq.tif	409841.246571	409841.496807	409842.209782	7.339351e-01	35	none	NaN	NaN
124	5	4	41	bathroom	sun_aoybiabnpadelefl.tif	409842.981360	409843.231509	409843.944614	7.172548e-01	31	none	NaN	NaN
124	5	5	21	bathroom	sun_aggnnqpdorgxpvce.tif	409844.716098	409844.966278	409845.679238	7.172548e-01	11	none	NaN	NaN
124	5	6	36	bathroom	sun_ambriybtogmepttm.tif	409846.450846	409846.700650	409847.413945	8.506975e-01	26	none	NaN	NaN
124	5	7	24	bathroom	sun_agrwbmhcpmfuwmsg.tif	409848.185587	409848.435925	409849.148752	6.838941e-01	14	none	NaN	NaN
124	5	8	37	bathroom	sun_amzlamotzwfkwjco.tif	409849.920360	409850.170667	409850.883546	7.005744e-01	27	none	NaN	NaN
124	5	9	20	bathroom	sun_afcoljnjfoxjtgja.tif	409851.655075	409851.921910	409852.618218	7.172548e-01	10	none	NaN	NaN
124	5	10	40	bathroom	sun_aofnryafpsjimzsb.tif	409853.389825	409853.639998	409854.353122	7.506155e-01	30	none	NaN	NaN
124	5	11	42	bathroom	sun_apeeialkgkuxddgh.tif	409855.124557	409855.374822	409856.087822	8.173369e-01	32	none	NaN	NaN
124	5	12	13	bathroom	sun_aavhrsfjbserjtht.tif	409856.859318	409857.109677	409857.822420	8.173369e-01	3	none	NaN	NaN
124	5	13	11	bathroom	labelme_sfxiulhjbhlyiyt.tif	409858.594038	409858.844164	409859.557217	7.339351e-01	1	none	NaN	NaN
124	5	14	34	bathroom	sun_alkosphxlxwjwgjd.tif	409860.328790	409860.578872	409861.291902	6.505334e-01	24	37	409862.252189	1
124	5	15	51	bathroom	sun_atstyziqcmkahyxk.tif	409863.047679	409863.297757	409864.010906	7.339351e-01	41	37	409867.164158	0
124	5	16	32	bathroom	sun_aleqenyvunhactkl.tif	409867.968355	409868.218643	409868.931655	7.839762e-01	22	none	NaN	NaN
124	5	17	26	bathroom	sun_ahaulkltgpkeeemi.tif	409869.703084	409869.952888	409870.666344	8.006565e-01	16	none	NaN	NaN
124	5	18	33	bathroom	sun_aljolscmmzydegqp.tif	409871.437837	409871.687913	409872.400993	7.005744e-01	23	37	409873.531942	1
124	5	19	28	bathroom	sun_ahijqszoswveeyji.tif	409874.323508	409874.573760	409875.286741	7.005744e-01	18	none	NaN	NaN
124	5	20	19	bathroom	sun_aclfzgynxzxlbepz.tif	409876.058258	409876.308439	409877.021558	7.672958e-01	9	none	NaN	NaN
124	5	21	35	bathroom	sun_alotolagknyrgtsk.tif	409877.792987	409878.043230	409878.756279	7.172548e-01	25	none	NaN	NaN
124	5	22	58	bathroom	sun_axxbkopsgyouuebh.tif	409879.527740	409879.778100	409880.490937	8.506975e-01	48	none	NaN	NaN
124	5	23	27	bathroom	sun_ahcvzmoyaycdoftf.tif	409881.262470	409881.512780	409882.225808	7.172548e-01	17	none	NaN	NaN
124	5	24	23	bathroom	sun_aghyqhbptboemmoq.tif	409882.997219	409883.247383	409883.960333	8.173369e-01	13	none	NaN	NaN
124	5	25	56	bathroom	sun_awnqiikzaispgmwo.tif	409884.731963	409884.982130	409885.695148	8.173369e-01	46	none	NaN	NaN
124	5	26	15	bathroom	sun_abjtwfukuwddzted.tif	409886.466707	409886.716853	409887.429886	7.506155e-01	5	none	NaN	NaN
124	5	27	48	bathroom	sun_aqrpegblszgcoujh.tif	409888.201447	409888.451259	409889.164755	8.506975e-01	38	none	NaN	NaN
124	5	28	18	bathroom	sun_acgyywnybuveqsro.tif	409889.936207	409890.186397	409890.899384	8.173369e-01	8	none	NaN	NaN
124	5	29	60	bathroom	sun_azqyogdvyhahyram.tif	409891.670940	409891.921288	409892.634183	8.006565e-01	50	none	NaN	NaN
124	5	30	46	bathroom	sun_apmqjbnwghzuhhzh.tif	409893.405674	409893.655907	409894.368950	6.672138e-01	36	none	NaN	NaN
124	5	31	30	bathroom	sun_ajlawzvmubibwbpy.tif	409895.140433	409895.390659	409896.103722	6.672138e-01	20	none	NaN	NaN
124	5	32	31	bathroom	sun_akiytfaagpdsphgz.tif	409896.875161	409897.125384	409897.838271	8.340172e-01	21	none	NaN	NaN
124	5	33	16	bathroom	sun_acduarbnmmoglmiv.tif	409898.609911	409898.860104	409899.573207	6.672138e-01	6	none	NaN	NaN
124	5	34	29	bathroom	sun_ahqjwnzgolcaoidx.tif	409900.344655	409900.595011	409901.307836	7.005744e-01	19	39	409902.548144	1
124	5	35	49	bathroom	sun_asfwthctfqerjvxr.tif	409903.347093	409903.597281	409904.310378	7.672958e-01	39	none	NaN	NaN
124	5	36	43	bathroom	sun_apjevzvycyhuqghb.tif	409905.081846	409905.332197	409906.044971	8.006565e-01	33	none	NaN	NaN
124	5	37	22	bathroom	sun_agguqiubmwhqqunb.tif	409906.816577	409907.066865	409907.779877	7.005744e-01	12	none	NaN	NaN
124	5	38	17	bathroom	sun_acegryoqftbzowsg.tif	409908.551331	409908.801616	409909.514465	6.672138e-01	7	none	NaN	NaN
124	5	39	44	bathroom	sun_apkruvsevgegsdwp.tif	409910.286075	409910.536221	409911.249289	7.672958e-01	34	39	409912.364016	1
124	5	40	52	bathroom	sun_aunuadmjocsddsrl.tif	409913.155081	409913.405175	409914.118171	8.006565e-01	42	none	NaN	NaN
124	5	41	59	bathroom	sun_axyrejkiiaqiurjk.tif	409914.889813	409915.140068	409915.853003	8.006565e-01	49	none	NaN	NaN
124	5	42	53	bathroom	sun_ausgutylgojavyoq.tif	409916.624566	409916.874779	409917.587756	7.172548e-01	43	none	NaN	NaN
124	5	43	12	bathroom	sun_aapitsgbtktqubfy.tif	409918.359306	409918.609529	409919.322406	6.505334e-01	2	none	NaN	NaN
124	5	44	25	bathroom	sun_agyqfjcfkdcydepw.tif	409920.094005	409920.344314	409921.057168	7.672958e-01	15	none	NaN	NaN
124	5	45	14	bathroom	sun_abapwbhyhkfixyex.tif	409921.828793	409922.079037	409922.792027	7.506155e-01	4	none	NaN	NaN
124	5	46	54	bathroom	sun_auzqhkafidnkrwmo.tif	409923.564409	409923.830376	409924.527618	8.006565e-01	44	none	NaN	NaN
124	5	47	39	bathroom	sun_anryaplzeujmzfkd.tif	409925.314971	409925.565191	409926.278087	7.839762e-01	29	none	NaN	NaN
124	5	48	38	bathroom	sun_anhioqovhscjqqwb.tif	409927.049704	409927.299896	409928.012932	6.838941e-01	28	none	NaN	NaN
124	5	49	57	bathroom	sun_axldvoqbuvuggfmq.tif	409928.784447	409929.034656	409929.747675	7.839762e-01	47	none	NaN	NaN
124	5	50	50	bathroom	sun_aspsyogrekjtfozg.tif	409930.519204	409930.769495	409931.482503	8.006565e-01	40	none	NaN	NaN
124	5	51	50	bathroom	sun_aspsyogrekjtfozg.tif	409932.253934	409932.504075	409933.217029	7.672958e-01	40	none	NaN	NaN
124	5	52	58	bathroom	sun_axxbkopsgyouuebh.tif	409933.988680	409934.239005	409934.951850	8.340172e-01	48	none	NaN	NaN
124	5	53	13	bathroom	sun_aavhrsfjbserjtht.tif	409935.723425	409935.973658	409936.686545	8.340172e-01	3	none	NaN	NaN
124	5	54	28	bathroom	sun_ahijqszoswveeyji.tif	409937.458165	409937.708389	409938.421279	7.506155e-01	18	none	NaN	NaN
124	5	55	31	bathroom	sun_akiytfaagpdsphgz.tif	409939.192897	409939.443044	409940.156014	7.506155e-01	21	none	NaN	NaN
124	5	56	14	bathroom	sun_abapwbhyhkfixyex.tif	409940.927658	409941.177982	409941.890840	8.340172e-01	4	none	NaN	NaN
124	5	57	26	bathroom	sun_ahaulkltgpkeeemi.tif	409942.662385	409942.912627	409943.625597	7.339351e-01	16	none	NaN	NaN
124	5	58	45	bathroom	sun_apkxzenqapsujocq.tif	409944.397142	409944.647432	409945.360281	8.173369e-01	35	none	NaN	NaN
124	5	59	52	bathroom	sun_aunuadmjocsddsrl.tif	409946.131887	409946.382203	409947.095087	7.839762e-01	42	none	NaN	NaN
124	5	60	15	bathroom	sun_abjtwfukuwddzted.tif	409947.866622	409948.116823	409948.829758	8.506975e-01	5	none	NaN	NaN
124	5	61	42	bathroom	sun_apeeialkgkuxddgh.tif	409949.601380	409949.851608	409950.564501	8.340172e-01	32	none	NaN	NaN
124	5	62	32	bathroom	sun_aleqenyvunhactkl.tif	409951.336143	409951.586308	409952.299243	8.340172e-01	22	none	NaN	NaN
124	5	63	34	bathroom	sun_alkosphxlxwjwgjd.tif	409953.070794	409953.321119	409954.034048	7.672958e-01	24	none	NaN	NaN
124	5	64	16	bathroom	sun_acduarbnmmoglmiv.tif	409954.805610	409955.055676	409955.768816	8.340172e-01	6	none	NaN	NaN
124	5	65	44	bathroom	sun_apkruvsevgegsdwp.tif	409956.540350	409956.790658	409957.503638	7.672958e-01	34	none	NaN	NaN
124	5	66	36	bathroom	sun_ambriybtogmepttm.tif	409958.275098	409958.525317	409959.238395	7.506155e-01	26	none	NaN	NaN
124	5	67	27	bathroom	sun_ahcvzmoyaycdoftf.tif	409960.009823	409960.260047	409960.972983	6.838941e-01	17	none	NaN	NaN
124	5	68	33	bathroom	sun_aljolscmmzydegqp.tif	409961.744566	409961.994708	409962.707763	8.173369e-01	23	39	409964.187902	1
124	5	69	49	bathroom	sun_asfwthctfqerjvxr.tif	409964.980543	409965.230861	409965.943679	7.005744e-01	39	none	NaN	NaN
124	5	70	46	bathroom	sun_apmqjbnwghzuhhzh.tif	409966.715287	409966.965559	409967.678400	6.672138e-01	36	39	409968.779851	1
124	5	71	60	bathroom	sun_azqyogdvyhahyram.tif	409969.584276	409969.834442	409970.547412	6.838941e-01	50	37	409971.547939	1
124	5	72	56	bathroom	sun_awnqiikzaispgmwo.tif	409972.336515	409972.586940	409973.299772	8.340172e-01	46	none	NaN	NaN
124	5	73	53	bathroom	sun_ausgutylgojavyoq.tif	409974.071272	409974.321471	409975.034581	7.839762e-01	43	none	NaN	NaN
124	5	74	12	bathroom	sun_aapitsgbtktqubfy.tif	409975.806040	409976.056357	409976.769193	7.839762e-01	2	none	NaN	NaN
124	5	75	38	bathroom	sun_anhioqovhscjqqwb.tif	409977.540751	409977.791028	409978.503921	6.838941e-01	28	none	NaN	NaN
124	5	76	47	bathroom	sun_apynckhmoftszqoq.tif	409979.275498	409979.525796	409980.238698	7.005744e-01	37	none	NaN	NaN
124	5	77	55	bathroom	sun_avhrdrntsqrjzccq.tif	409981.010242	409981.260544	409981.973399	6.838941e-01	45	none	NaN	NaN
124	5	78	29	bathroom	sun_ahqjwnzgolcaoidx.tif	409982.745004	409982.994789	409983.708245	8.340172e-01	19	none	NaN	NaN
124	5	79	20	bathroom	sun_afcoljnjfoxjtgja.tif	409984.479734	409984.730087	409985.442873	7.839762e-01	10	37	409986.396040	1
124	5	80	59	bathroom	sun_axyrejkiiaqiurjk.tif	409987.198611	409987.448901	409988.161798	6.505334e-01	49	none	NaN	NaN
124	5	81	39	bathroom	sun_anryaplzeujmzfkd.tif	409988.933353	409989.183649	409989.896654	7.172548e-01	29	none	NaN	NaN
124	5	82	18	bathroom	sun_acgyywnybuveqsro.tif	409990.668091	409990.918296	409991.631343	7.339351e-01	8	none	NaN	NaN
124	5	83	21	bathroom	sun_aggnnqpdorgxpvce.tif	409992.402840	409992.653842	409993.366079	7.005744e-01	11	none	NaN	NaN
124	5	84	37	bathroom	sun_amzlamotzwfkwjco.tif	409994.137589	409994.387771	409995.100849	7.172548e-01	27	39	409998.403918	1
124	5	85	11	bathroom	labelme_sfxiulhjbhlyiyt.tif	409999.191683	409999.441971	410000.154989	7.339351e-01	1	37	410001.051697	1
124	5	86	35	bathroom	sun_alotolagknyrgtsk.tif	410001.843851	410002.094128	410002.806962	7.506155e-01	25	37	410004.252029	1
124	5	87	30	bathroom	sun_ajlawzvmubibwbpy.tif	410005.046468	410005.296610	410006.009582	7.672958e-01	20	none	NaN	NaN
124	5	88	57	bathroom	sun_axldvoqbuvuggfmq.tif	410006.781198	410007.031552	410007.744304	6.838941e-01	47	none	NaN	NaN
124	5	89	22	bathroom	sun_agguqiubmwhqqunb.tif	410008.515932	410008.766151	410009.479244	6.672138e-01	12	none	NaN	NaN
124	5	90	19	bathroom	sun_aclfzgynxzxlbepz.tif	410010.250678	410010.500870	410011.213880	7.339351e-01	9	none	NaN	NaN
124	5	91	25	bathroom	sun_agyqfjcfkdcydepw.tif	410011.985416	410012.235740	410012.948585	6.672138e-01	15	37	410013.635826	1
124	5	92	43	bathroom	sun_apjevzvycyhuqghb.tif	410014.437428	410014.687507	410015.400603	6.672138e-01	33	none	NaN	NaN
124	5	93	54	bathroom	sun_auzqhkafidnkrwmo.tif	410016.172180	410016.422440	410017.135341	7.839762e-01	44	none	NaN	NaN
124	5	94	51	bathroom	sun_atstyziqcmkahyxk.tif	410017.906897	410018.157042	410018.869997	7.339351e-01	41	none	NaN	NaN
124	5	95	24	bathroom	sun_agrwbmhcpmfuwmsg.tif	410019.641656	410019.891810	410020.604784	6.838941e-01	14	none	NaN	NaN
124	5	96	23	bathroom	sun_aghyqhbptboemmoq.tif	410021.376393	410021.626610	410022.339539	7.005744e-01	13	39	410025.939924	1
124	5	97	40	bathroom	sun_aofnryafpsjimzsb.tif	410026.730738	410026.980906	410027.693950	6.505334e-01	30	none	NaN	NaN
124	5	98	41	bathroom	sun_aoybiabnpadelefl.tif	410028.465480	410028.715645	410029.428616	7.506155e-01	31	none	NaN	NaN
124	5	99	48	bathroom	sun_aqrpegblszgcoujh.tif	410030.200230	410030.450471	410031.163401	8.006565e-01	38	none	NaN	NaN
124	5	100	17	bathroom	sun_acegryoqftbzowsg.tif	410031.934973	410032.185126	410032.898096	8.173369e-01	7	none	NaN	NaN
124	6	1	64	kitchen	sun_aadbddgrdsjugojn.tif	410083.343456	410083.593572	410084.339911	8.506975e-01	54	none	NaN	NaN
124	6	2	81	kitchen	sun_aehawpgmrlhlvcow.tif	410085.111552	410085.361740	410086.108097	7.005744e-01	71	none	NaN	NaN
124	6	3	108	kitchen	sun_aymvwlarqodbwuoc.tif	410086.879654	410087.129843	410087.876299	6.838941e-01	98	none	NaN	NaN
124	6	4	65	kitchen	sun_aamedkxepzlwuxes.tif	410088.647745	410088.898068	410089.644289	8.173369e-01	55	none	NaN	NaN
124	6	5	87	kitchen	sun_agorklincwxrdtga.tif	410090.415861	410090.666084	410091.412344	8.173369e-01	77	none	NaN	NaN
124	6	6	90	kitchen	sun_ahdycvpopffkzzsu.tif	410092.183984	410092.434186	410093.180464	7.506155e-01	80	none	NaN	NaN
124	6	7	99	kitchen	sun_akcjzhbbjlbogpdi.tif	410093.952050	410094.202358	410094.948563	7.672958e-01	89	37	410096.819928	0
124	6	8	93	kitchen	sun_ahspylgoovwmwvgk.tif	410097.621713	410097.871945	410098.618205	7.005744e-01	83	none	NaN	NaN
124	6	9	62	kitchen	labelme_kxvouciolcpqplr.tif	410099.389867	410099.639912	410100.386437	6.672138e-01	52	none	NaN	NaN
124	6	10	69	kitchen	sun_abdenxonkemggwsq.tif	410101.157932	410101.408062	410102.154434	6.838941e-01	59	none	NaN	NaN
124	6	11	98	kitchen	sun_akchetnepxlcxhsu.tif	410102.926027	410103.176369	410103.922620	7.839762e-01	88	none	NaN	NaN
124	6	12	106	kitchen	sun_awcpdzzznmweyyhv.tif	410104.694155	410104.944448	410105.690760	8.006565e-01	96	none	NaN	NaN
124	6	13	109	kitchen	sun_aypmqwcualkenuoe.tif	410106.462248	410106.712340	410107.458807	7.005744e-01	99	none	NaN	NaN
124	6	14	100	kitchen	sun_amjjdeyrggfqgmom.tif	410108.230354	410108.480672	410109.226889	7.172548e-01	90	none	NaN	NaN
124	6	15	89	kitchen	sun_agzzivivdpnawacl.tif	410109.998439	410110.248571	410110.994933	8.340172e-01	79	none	NaN	NaN
124	6	16	103	kitchen	sun_aunzlwrbjumxhwdj.tif	410111.766555	410112.016921	410112.763005	7.005744e-01	93	none	NaN	NaN
124	6	17	78	kitchen	sun_adgqasybjyktddhj.tif	410113.534634	410113.784935	410114.531098	8.340172e-01	68	none	NaN	NaN
124	6	18	68	kitchen	sun_aaxxjlsuzvqlgylf.tif	410115.302768	410115.552950	410116.299313	8.340172e-01	58	none	NaN	NaN
124	6	19	71	kitchen	sun_abftihopvusyfakt.tif	410117.070883	410117.320996	410118.067503	7.005744e-01	61	none	NaN	NaN
124	6	20	105	kitchen	sun_avszsnwsbuqfgzbn.tif	410118.838965	410119.089274	410119.835530	6.505334e-01	95	37	410120.931856	0
124	6	21	73	kitchen	sun_abrcnpqqhmjwekyf.tif	410121.724669	410121.974979	410122.721193	7.506155e-01	63	none	NaN	NaN
124	6	22	67	kitchen	sun_aarfiyshqohlwkmo.tif	410123.492781	410123.742835	410124.489407	7.672958e-01	57	none	NaN	NaN
124	6	23	86	kitchen	sun_aggjlwcdjsjcaemh.tif	410125.260849	410125.511004	410126.257405	8.006565e-01	76	none	NaN	NaN
124	6	24	74	kitchen	sun_acfmftudsenhrfhy.tif	410127.028953	410127.279076	410128.025613	6.672138e-01	64	none	NaN	NaN
124	6	25	66	kitchen	sun_aapllqyqlykszopd.tif	410128.797078	410129.047161	410129.793714	7.172548e-01	56	none	NaN	NaN
124	6	26	95	kitchen	sun_aixorpehvfykdynp.tif	410130.565167	410130.815400	410131.561708	7.672958e-01	85	none	NaN	NaN
124	6	27	70	kitchen	sun_abdxkyyxwfskuaqb.tif	410132.333254	410132.600048	410133.329749	8.340172e-01	60	39	410134.275592	1
124	6	28	75	kitchen	sun_acgtpgfybqjmzeyw.tif	410135.068816	410135.319139	410136.065412	8.340172e-01	65	none	NaN	NaN
124	6	29	94	kitchen	sun_ahywdevtimnqcsln.tif	410136.836921	410137.087124	410137.833473	7.339351e-01	84	none	NaN	NaN
124	6	30	85	kitchen	sun_afuyedyxivkhecmu.tif	410138.605049	410138.855120	410139.601572	7.839762e-01	75	none	NaN	NaN
124	6	31	107	kitchen	sun_axyyrmzcupyhlivc.tif	410140.373121	410140.623306	410141.369724	8.173369e-01	97	none	NaN	NaN
124	6	32	91	kitchen	sun_ahljzhgcdpomplvg.tif	410142.141260	410142.391556	410143.137837	7.172548e-01	81	none	NaN	NaN
124	6	33	96	kitchen	sun_ajcbwwvdlsvjyzje.tif	410143.909340	410144.159523	410144.905796	7.839762e-01	86	39	410146.203880	1
124	6	34	82	kitchen	sun_aenotlpyftoioydp.tif	410146.995194	410147.245361	410147.991664	7.506155e-01	72	37	410148.939886	1
124	6	35	102	kitchen	sun_auaiucuqpdausiva.tif	410149.730801	410149.981035	410150.727465	8.006565e-01	92	37	410151.603781	1
124	6	36	72	kitchen	sun_abpwyqmlzafvklqo.tif	410152.399593	410152.649710	410153.396122	7.339351e-01	62	none	NaN	NaN
124	6	37	84	kitchen	sun_aexklacwqwezaorf.tif	410154.167681	410154.417852	410155.164149	7.672958e-01	74	39	410156.251812	1
124	6	38	101	kitchen	sun_aqeaevwwwjoqhzvl.tif	410157.053381	410157.303612	410158.049988	7.672958e-01	91	none	NaN	NaN
124	6	39	110	kitchen	sun_azmutvzbxypaceni.tif	410158.821483	410159.071640	410159.817984	6.505334e-01	100	none	NaN	NaN
124	6	40	83	kitchen	sun_aeqdocilnnpuvuhx.tif	410160.589581	410160.839760	410161.586138	8.006565e-01	73	none	NaN	NaN
124	6	41	77	kitchen	sun_acxkpeoqbwcxfvip.tif	410162.357681	410162.607924	410163.354134	8.173369e-01	67	none	NaN	NaN
124	6	42	63	kitchen	labelme_rykdqxenmhulbdn.tif	410164.125816	410164.375968	410165.122359	6.505334e-01	53	none	NaN	NaN
124	6	43	80	kitchen	sun_aegoxogugdkwpmpj.tif	410165.893887	410166.144035	410166.890398	7.172548e-01	70	none	NaN	NaN
124	6	44	79	kitchen	sun_admlmbcdswaszruo.tif	410167.662006	410167.912239	410168.658629	7.839762e-01	69	37	410169.675736	1
124	6	45	61	kitchen	labelme_brsyyvweiuaazfr.tif	410170.464281	410170.714638	410171.460784	7.005744e-01	51	none	NaN	NaN
124	6	46	97	kitchen	sun_ajkqhtgcbgpcwrwn.tif	410172.232381	410172.482181	410173.229035	7.172548e-01	87	none	NaN	NaN
124	6	47	88	kitchen	sun_agubuxuukhzyzpdp.tif	410174.000472	410174.250706	410174.996945	7.339351e-01	78	none	NaN	NaN
124	6	48	104	kitchen	sun_auticobqsbwgoppi.tif	410175.768581	410176.018396	410176.765169	7.839762e-01	94	none	NaN	NaN
124	6	49	76	kitchen	sun_acwjdupvyjsugpay.tif	410177.536687	410177.786859	410178.533249	7.672958e-01	66	none	NaN	NaN
124	6	50	92	kitchen	sun_ahpczsiumwwocjkv.tif	410179.304796	410179.554935	410180.301457	7.172548e-01	82	none	NaN	NaN
124	6	51	105	kitchen	sun_avszsnwsbuqfgzbn.tif	410181.072893	410181.323071	410182.069469	8.340172e-01	95	none	NaN	NaN
124	6	52	92	kitchen	sun_ahpczsiumwwocjkv.tif	410182.841006	410183.091172	410183.837615	8.340172e-01	82	none	NaN	NaN
124	6	53	83	kitchen	sun_aeqdocilnnpuvuhx.tif	410184.609111	410184.859381	410185.605655	7.339351e-01	73	none	NaN	NaN
124	6	54	94	kitchen	sun_ahywdevtimnqcsln.tif	410186.377219	410186.627390	410187.373841	8.173369e-01	84	none	NaN	NaN
124	6	55	101	kitchen	sun_aqeaevwwwjoqhzvl.tif	410188.145311	410188.395501	410189.141836	7.005744e-01	91	none	NaN	NaN
124	6	56	81	kitchen	sun_aehawpgmrlhlvcow.tif	410189.913420	410190.163600	410190.909955	6.838941e-01	71	none	NaN	NaN
124	6	57	87	kitchen	sun_agorklincwxrdtga.tif	410191.681521	410191.931893	410192.677997	8.006565e-01	77	none	NaN	NaN
124	6	58	89	kitchen	sun_agzzivivdpnawacl.tif	410193.449629	410193.699717	410194.446088	7.172548e-01	79	none	NaN	NaN
124	6	59	74	kitchen	sun_acfmftudsenhrfhy.tif	410195.217742	410195.467842	410196.214250	8.006565e-01	64	none	NaN	NaN
124	6	60	67	kitchen	sun_aarfiyshqohlwkmo.tif	410196.985839	410197.235969	410197.982374	6.838941e-01	57	none	NaN	NaN
124	6	61	63	kitchen	labelme_rykdqxenmhulbdn.tif	410198.753944	410199.004138	410199.750495	6.672138e-01	53	none	NaN	NaN
124	6	62	84	kitchen	sun_aexklacwqwezaorf.tif	410200.522049	410200.771845	410201.518677	6.505334e-01	74	none	NaN	NaN
124	6	63	103	kitchen	sun_aunzlwrbjumxhwdj.tif	410202.290131	410202.540421	410203.286614	6.838941e-01	93	37	410204.411869	1
124	6	64	91	kitchen	sun_ahljzhgcdpomplvg.tif	410205.209191	410205.459486	410206.205856	7.005744e-01	81	none	NaN	NaN
124	6	65	62	kitchen	labelme_kxvouciolcpqplr.tif	410206.977305	410207.227567	410207.973905	7.506155e-01	52	39	410209.171693	1
124	6	66	106	kitchen	sun_awcpdzzznmweyyhv.tif	410209.963061	410210.213270	410210.959649	6.672138e-01	96	none	NaN	NaN
124	6	67	68	kitchen	sun_aaxxjlsuzvqlgylf.tif	410211.732463	410211.998007	410212.729120	7.506155e-01	58	none	NaN	NaN
124	6	68	65	kitchen	sun_aamedkxepzlwuxes.tif	410213.515949	410213.766028	410214.512501	7.339351e-01	55	none	NaN	NaN
124	6	69	96	kitchen	sun_ajcbwwvdlsvjyzje.tif	410215.284039	410215.534371	410216.280514	7.005744e-01	86	none	NaN	NaN
124	6	70	110	kitchen	sun_azmutvzbxypaceni.tif	410217.052152	410217.302428	410218.048680	8.506975e-01	100	none	NaN	NaN
124	6	71	77	kitchen	sun_acxkpeoqbwcxfvip.tif	410218.820252	410219.070550	410219.816741	8.506975e-01	67	39	410221.083536	1
124	6	72	86	kitchen	sun_aggjlwcdjsjcaemh.tif	410221.872732	410222.122874	410222.869356	7.839762e-01	76	none	NaN	NaN
124	6	73	64	kitchen	sun_aadbddgrdsjugojn.tif	410223.640846	410223.891062	410224.637478	6.672138e-01	54	none	NaN	NaN
124	6	74	76	kitchen	sun_acwjdupvyjsugpay.tif	410225.408949	410225.659167	410226.405480	8.173369e-01	66	none	NaN	NaN
124	6	75	104	kitchen	sun_auticobqsbwgoppi.tif	410227.194235	410227.443271	410228.190871	8.506975e-01	94	none	NaN	NaN
124	6	76	95	kitchen	sun_aixorpehvfykdynp.tif	410228.961824	410229.211948	410229.958352	7.506155e-01	85	none	NaN	NaN
124	6	77	109	kitchen	sun_aypmqwcualkenuoe.tif	410230.729968	410230.980175	410231.726527	8.340172e-01	99	none	NaN	NaN
124	6	78	108	kitchen	sun_aymvwlarqodbwuoc.tif	410232.498033	410232.748161	410233.494543	6.838941e-01	98	37	410234.579759	1
124	6	79	100	kitchen	sun_amjjdeyrggfqgmom.tif	410235.383701	410235.633919	410236.380343	7.672958e-01	90	none	NaN	NaN
124	6	80	99	kitchen	sun_akcjzhbbjlbogpdi.tif	410237.151820	410237.402125	410238.148427	6.672138e-01	89	none	NaN	NaN
124	6	81	70	kitchen	sun_abdxkyyxwfskuaqb.tif	410238.919952	410239.170285	410239.916489	7.172548e-01	60	none	NaN	NaN
124	6	82	75	kitchen	sun_acgtpgfybqjmzeyw.tif	410240.688020	410240.938237	410241.684638	6.672138e-01	65	37	410242.691871	1
124	6	83	90	kitchen	sun_ahdycvpopffkzzsu.tif	410243.490296	410243.740468	410244.486838	6.838941e-01	80	none	NaN	NaN
124	6	84	97	kitchen	sun_ajkqhtgcbgpcwrwn.tif	410245.258414	410245.508703	410246.254958	6.838941e-01	87	none	NaN	NaN
124	6	85	88	kitchen	sun_agubuxuukhzyzpdp.tif	410247.026505	410247.276802	410248.023166	6.505334e-01	78	none	NaN	NaN
124	6	86	80	kitchen	sun_aegoxogugdkwpmpj.tif	410248.794636	410249.044925	410249.791196	8.006565e-01	70	none	NaN	NaN
124	6	87	82	kitchen	sun_aenotlpyftoioydp.tif	410250.562723	410250.813068	410251.559221	7.339351e-01	72	none	NaN	NaN
124	6	88	102	kitchen	sun_auaiucuqpdausiva.tif	410252.330832	410252.581144	410253.327431	8.006565e-01	92	39	410254.147735	1
124	6	89	66	kitchen	sun_aapllqyqlykszopd.tif	410254.949646	410255.199959	410255.946274	7.839762e-01	56	none	NaN	NaN
124	6	90	78	kitchen	sun_adgqasybjyktddhj.tif	410256.717738	410256.967551	410257.714293	8.173369e-01	68	none	NaN	NaN
124	6	91	61	kitchen	labelme_brsyyvweiuaazfr.tif	410258.485841	410258.736028	410259.482382	8.173369e-01	51	none	NaN	NaN
124	6	92	79	kitchen	sun_admlmbcdswaszruo.tif	410260.253944	410260.504288	410261.250569	8.340172e-01	69	37	410262.267523	1
124	6	93	73	kitchen	sun_abrcnpqqhmjwekyf.tif	410263.056228	410263.306380	410264.054215	7.672958e-01	63	none	NaN	NaN
124	6	94	69	kitchen	sun_abdenxonkemggwsq.tif	410264.841011	410265.090803	410265.837476	6.672138e-01	59	none	NaN	NaN
124	6	95	98	kitchen	sun_akchetnepxlcxhsu.tif	410266.609105	410266.859334	410267.605681	7.672958e-01	88	none	NaN	NaN
124	6	96	107	kitchen	sun_axyyrmzcupyhlivc.tif	410268.377219	410268.627337	410269.373804	7.839762e-01	97	none	NaN	NaN
124	6	97	71	kitchen	sun_abftihopvusyfakt.tif	410270.145353	410270.395475	410271.141997	7.506155e-01	61	none	NaN	NaN
124	6	98	85	kitchen	sun_afuyedyxivkhecmu.tif	410271.913419	410272.163691	410272.909959	7.339351e-01	75	none	NaN	NaN
124	6	99	93	kitchen	sun_ahspylgoovwmwvgk.tif	410273.681527	410273.931853	410274.678121	7.339351e-01	83	none	NaN	NaN
124	6	100	72	kitchen	sun_abpwyqmlzafvklqo.tif	410275.449627	410275.699947	410276.446266	7.506155e-01	62	none	NaN	NaN
124	7	1	30	bathroom	sun_ajlawzvmubibwbpy.tif	410333.713661	410333.963821	410334.660085	6.672138e-01	20	37	410335.667640	1
124	7	2	24	bathroom	sun_agrwbmhcpmfuwmsg.tif	410336.465973	410336.716076	410337.412493	7.506155e-01	14	none	NaN	NaN
124	7	3	18	bathroom	sun_acgyywnybuveqsro.tif	410338.183961	410338.434289	410339.130439	7.672958e-01	8	none	NaN	NaN
124	7	4	11	bathroom	labelme_sfxiulhjbhlyiyt.tif	410339.902035	410340.152306	410340.848518	7.506155e-01	1	none	NaN	NaN
124	7	5	36	bathroom	sun_ambriybtogmepttm.tif	410341.620092	410341.870266	410342.566555	7.839762e-01	26	none	NaN	NaN
124	7	6	59	bathroom	sun_axyrejkiiaqiurjk.tif	410343.338158	410343.588314	410344.284707	8.006565e-01	49	39	410345.331618	1
124	7	7	41	bathroom	sun_aoybiabnpadelefl.tif	410346.123744	410346.374035	410347.070298	7.005744e-01	31	none	NaN	NaN
124	7	8	27	bathroom	sun_ahcvzmoyaycdoftf.tif	410347.841812	410348.108658	410348.788309	7.339351e-01	17	none	NaN	NaN
124	7	9	33	bathroom	sun_aljolscmmzydegqp.tif	410349.559887	410349.810096	410350.506426	7.339351e-01	23	none	NaN	NaN
124	7	10	19	bathroom	sun_aclfzgynxzxlbepz.tif	410351.277940	410351.528275	410352.224379	6.672138e-01	9	none	NaN	NaN
124	7	11	50	bathroom	sun_aspsyogrekjtfozg.tif	410352.996012	410353.246275	410353.942572	7.506155e-01	40	none	NaN	NaN
124	7	12	25	bathroom	sun_agyqfjcfkdcydepw.tif	410354.714075	410354.964298	410355.660579	6.505334e-01	15	37	410356.571711	1
124	7	13	48	bathroom	sun_aqrpegblszgcoujh.tif	410357.366240	410357.616516	410358.312753	8.006565e-01	38	none	NaN	NaN
124	7	14	52	bathroom	sun_aunuadmjocsddsrl.tif	410359.084281	410359.334586	410360.030868	8.340172e-01	42	none	NaN	NaN
124	7	15	45	bathroom	sun_apkxzenqapsujocq.tif	410360.802336	410361.052655	410361.748783	8.006565e-01	35	none	NaN	NaN
124	7	16	54	bathroom	sun_auzqhkafidnkrwmo.tif	410362.520415	410362.770577	410363.466865	6.838941e-01	44	none	NaN	NaN
124	7	17	43	bathroom	sun_apjevzvycyhuqghb.tif	410364.238479	410364.488678	410365.184918	6.838941e-01	33	37	410366.035619	1
124	7	18	23	bathroom	sun_aghyqhbptboemmoq.tif	410366.823903	410367.074033	410367.770493	7.672958e-01	13	none	NaN	NaN
124	7	19	57	bathroom	sun_axldvoqbuvuggfmq.tif	410368.541986	410368.792069	410369.488425	7.506155e-01	47	none	NaN	NaN
124	7	20	13	bathroom	sun_aavhrsfjbserjtht.tif	410370.260026	410370.510347	410371.206458	8.173369e-01	3	none	NaN	NaN
124	7	21	28	bathroom	sun_ahijqszoswveeyji.tif	410371.978105	410372.228425	410372.924595	7.339351e-01	18	39	410374.091598	1
124	7	22	51	bathroom	sun_atstyziqcmkahyxk.tif	410374.880469	410375.130619	410375.826938	7.172548e-01	41	none	NaN	NaN
124	7	23	55	bathroom	sun_avhrdrntsqrjzccq.tif	410376.598534	410376.848879	410377.545115	7.172548e-01	45	none	NaN	NaN
124	7	24	40	bathroom	sun_aofnryafpsjimzsb.tif	410378.316588	410378.566798	410379.263142	7.005744e-01	30	none	NaN	NaN
124	7	25	44	bathroom	sun_apkruvsevgegsdwp.tif	410380.034641	410380.284772	410380.981189	8.006565e-01	34	none	NaN	NaN
124	7	26	42	bathroom	sun_apeeialkgkuxddgh.tif	410381.752722	410382.002942	410382.699262	8.173369e-01	32	none	NaN	NaN
124	7	27	20	bathroom	sun_afcoljnjfoxjtgja.tif	410383.470790	410383.721084	410384.417210	7.172548e-01	10	none	NaN	NaN
124	7	28	17	bathroom	sun_acegryoqftbzowsg.tif	410385.188844	410385.439063	410386.135276	8.340172e-01	7	none	NaN	NaN
124	7	29	37	bathroom	sun_amzlamotzwfkwjco.tif	410386.906906	410387.157052	410387.853508	6.838941e-01	27	none	NaN	NaN
124	7	30	16	bathroom	sun_acduarbnmmoglmiv.tif	410388.624975	410388.875131	410389.571593	6.838941e-01	6	none	NaN	NaN
124	7	31	34	bathroom	sun_alkosphxlxwjwgjd.tif	410390.343038	410390.593336	410391.289605	8.340172e-01	24	none	NaN	NaN
124	7	32	49	bathroom	sun_asfwthctfqerjvxr.tif	410392.061092	410392.311419	410393.007864	7.672958e-01	39	none	NaN	NaN
124	7	33	31	bathroom	sun_akiytfaagpdsphgz.tif	410393.779168	410394.029446	410394.725610	7.839762e-01	21	none	NaN	NaN
124	7	34	53	bathroom	sun_ausgutylgojavyoq.tif	410395.497241	410395.747525	410396.443853	7.005744e-01	43	39	410397.459759	1
124	7	35	39	bathroom	sun_anryaplzeujmzfkd.tif	410398.249467	410398.499738	410399.195977	8.340172e-01	29	none	NaN	NaN
124	7	36	21	bathroom	sun_aggnnqpdorgxpvce.tif	410399.967526	410400.217864	410400.913965	7.839762e-01	11	39	410402.195598	1
124	7	37	56	bathroom	sun_awnqiikzaispgmwo.tif	410402.986644	410403.236829	410403.933182	7.339351e-01	46	none	NaN	NaN
124	7	38	14	bathroom	sun_abapwbhyhkfixyex.tif	410404.704705	410404.954921	410405.651209	8.173369e-01	4	none	NaN	NaN
124	7	39	60	bathroom	sun_azqyogdvyhahyram.tif	410406.422771	410406.672908	410407.369201	7.672958e-01	50	none	NaN	NaN
124	7	40	38	bathroom	sun_anhioqovhscjqqwb.tif	410408.140839	410408.391094	410409.087424	8.173369e-01	28	none	NaN	NaN
124	7	41	47	bathroom	sun_apynckhmoftszqoq.tif	410409.858917	410410.109183	410410.805335	6.505334e-01	37	none	NaN	NaN
124	7	42	12	bathroom	sun_aapitsgbtktqubfy.tif	410411.576977	410411.827178	410412.523409	8.006565e-01	2	none	NaN	NaN
124	7	43	22	bathroom	sun_agguqiubmwhqqunb.tif	410413.295024	410413.545149	410414.241502	7.506155e-01	12	37	410415.155769	1
124	7	44	46	bathroom	sun_apmqjbnwghzuhhzh.tif	410415.947170	410416.197509	410416.893578	8.340172e-01	36	none	NaN	NaN
124	7	45	58	bathroom	sun_axxbkopsgyouuebh.tif	410417.665246	410417.915418	410418.611743	8.173369e-01	48	none	NaN	NaN
124	7	46	35	bathroom	sun_alotolagknyrgtsk.tif	410419.383324	410419.633447	410420.329761	8.506975e-01	25	none	NaN	NaN
124	7	47	26	bathroom	sun_ahaulkltgpkeeemi.tif	410421.118054	410421.368383	410422.064636	8.006565e-01	16	none	NaN	NaN
124	7	48	29	bathroom	sun_ahqjwnzgolcaoidx.tif	410422.836118	410423.086374	410423.782569	6.672138e-01	19	none	NaN	NaN
124	7	49	32	bathroom	sun_aleqenyvunhactkl.tif	410424.554176	410424.804517	410425.500656	7.506155e-01	22	none	NaN	NaN
124	7	50	15	bathroom	sun_abjtwfukuwddzted.tif	410426.272247	410426.522469	410427.218703	6.505334e-01	5	none	NaN	NaN
124	7	51	16	bathroom	sun_acduarbnmmoglmiv.tif	410427.990311	410428.240449	410428.936863	7.172548e-01	6	none	NaN	NaN
124	7	52	53	bathroom	sun_ausgutylgojavyoq.tif	410429.708368	410429.958639	410430.654835	8.340172e-01	43	none	NaN	NaN
124	7	53	23	bathroom	sun_aghyqhbptboemmoq.tif	410431.426437	410431.676623	410432.373041	7.839762e-01	13	none	NaN	NaN
124	7	54	17	bathroom	sun_acegryoqftbzowsg.tif	410433.144483	410433.394558	410434.091075	6.672138e-01	7	none	NaN	NaN
124	7	55	32	bathroom	sun_aleqenyvunhactkl.tif	410434.862562	410435.112845	410435.809188	8.340172e-01	22	39	410440.051527	0
124	7	56	37	bathroom	sun_amzlamotzwfkwjco.tif	410440.850769	410441.100914	410441.797278	8.173369e-01	27	none	NaN	NaN
124	7	57	59	bathroom	sun_axyrejkiiaqiurjk.tif	410442.570194	410442.835664	410443.516742	7.506155e-01	49	39	410445.243673	1
124	7	58	41	bathroom	sun_aoybiabnpadelefl.tif	410446.038316	410446.288551	410446.984825	7.005744e-01	31	none	NaN	NaN
124	7	59	26	bathroom	sun_ahaulkltgpkeeemi.tif	410447.756381	410448.006554	410448.702927	8.173369e-01	16	none	NaN	NaN
124	7	60	55	bathroom	sun_avhrdrntsqrjzccq.tif	410449.474445	410449.724706	410450.420969	6.672138e-01	45	none	NaN	NaN
124	7	61	40	bathroom	sun_aofnryafpsjimzsb.tif	410451.192446	410451.442625	410452.138881	7.339351e-01	30	none	NaN	NaN
124	7	62	33	bathroom	sun_aljolscmmzydegqp.tif	410452.910570	410453.160899	410453.857186	7.005744e-01	23	none	NaN	NaN
124	7	63	24	bathroom	sun_agrwbmhcpmfuwmsg.tif	410454.628634	410454.878738	410455.575176	7.672958e-01	14	none	NaN	NaN
124	7	64	39	bathroom	sun_anryaplzeujmzfkd.tif	410456.346700	410456.597045	410457.293251	8.506975e-01	29	none	NaN	NaN
124	7	65	38	bathroom	sun_anhioqovhscjqqwb.tif	410458.064756	410458.314974	410459.011361	6.505334e-01	28	none	NaN	NaN
124	7	66	15	bathroom	sun_abjtwfukuwddzted.tif	410459.782819	410460.033134	410460.729247	6.838941e-01	5	none	NaN	NaN
124	7	67	42	bathroom	sun_apeeialkgkuxddgh.tif	410461.500882	410461.751052	410462.447317	7.839762e-01	32	none	NaN	NaN
124	7	68	11	bathroom	labelme_sfxiulhjbhlyiyt.tif	410463.218943	410463.469030	410464.165538	8.506975e-01	1	none	NaN	NaN
124	7	69	12	bathroom	sun_aapitsgbtktqubfy.tif	410464.937008	410465.187205	410465.883527	6.838941e-01	2	none	NaN	NaN
124	7	70	43	bathroom	sun_apjevzvycyhuqghb.tif	410466.655075	410466.905384	410467.601546	7.339351e-01	33	none	NaN	NaN
124	7	71	47	bathroom	sun_apynckhmoftszqoq.tif	410468.373149	410468.623418	410469.319781	8.006565e-01	37	39	410470.827345	0
124	7	72	34	bathroom	sun_alkosphxlxwjwgjd.tif	410471.625778	410471.875974	410472.572232	7.506155e-01	24	none	NaN	NaN
124	7	73	30	bathroom	sun_ajlawzvmubibwbpy.tif	410473.343853	410473.594034	410474.290647	7.172548e-01	20	none	NaN	NaN
124	7	74	56	bathroom	sun_awnqiikzaispgmwo.tif	410475.061891	410475.312150	410476.008417	6.672138e-01	46	none	NaN	NaN
124	7	75	36	bathroom	sun_ambriybtogmepttm.tif	410476.779984	410477.030172	410477.726512	8.173369e-01	26	none	NaN	NaN
124	7	76	46	bathroom	sun_apmqjbnwghzuhhzh.tif	410478.498030	410478.748304	410479.444530	6.672138e-01	36	none	NaN	NaN
124	7	77	14	bathroom	sun_abapwbhyhkfixyex.tif	410480.216108	410480.466259	410481.162638	7.839762e-01	4	none	NaN	NaN
124	7	78	19	bathroom	sun_aclfzgynxzxlbepz.tif	410481.934210	410482.184426	410482.880702	7.005744e-01	9	none	NaN	NaN
124	7	79	25	bathroom	sun_agyqfjcfkdcydepw.tif	410483.652223	410483.902385	410484.598705	7.005744e-01	15	none	NaN	NaN
124	7	80	13	bathroom	sun_aavhrsfjbserjtht.tif	410485.370291	410485.620445	410486.316821	7.339351e-01	3	none	NaN	NaN
124	7	81	60	bathroom	sun_azqyogdvyhahyram.tif	410487.088355	410487.338709	410488.034798	7.339351e-01	50	none	NaN	NaN
124	7	82	50	bathroom	sun_aspsyogrekjtfozg.tif	410488.806420	410489.056668	410489.752906	6.505334e-01	40	39	410490.675344	1
124	7	83	22	bathroom	sun_agguqiubmwhqqunb.tif	410491.475257	410491.725423	410492.421703	6.672138e-01	12	none	NaN	NaN
124	7	84	20	bathroom	sun_afcoljnjfoxjtgja.tif	410493.193321	410493.443534	410494.139900	8.340172e-01	10	none	NaN	NaN
124	7	85	18	bathroom	sun_acgyywnybuveqsro.tif	410494.911423	410495.161745	410495.857848	6.838941e-01	8	none	NaN	NaN
124	7	86	58	bathroom	sun_axxbkopsgyouuebh.tif	410496.629460	410496.879675	410497.575902	7.672958e-01	48	none	NaN	NaN
124	7	87	35	bathroom	sun_alotolagknyrgtsk.tif	410498.347493	410498.597813	410499.294097	7.172548e-01	25	none	NaN	NaN
124	7	88	44	bathroom	sun_apkruvsevgegsdwp.tif	410500.065574	410500.315710	410501.012139	7.005744e-01	34	none	NaN	NaN
124	7	89	48	bathroom	sun_aqrpegblszgcoujh.tif	410501.783647	410502.033899	410502.730245	7.839762e-01	38	none	NaN	NaN
124	7	90	45	bathroom	sun_apkxzenqapsujocq.tif	410503.501724	410503.752012	410504.448324	7.839762e-01	35	none	NaN	NaN
124	7	91	57	bathroom	sun_axldvoqbuvuggfmq.tif	410505.219703	410505.470173	410506.166207	7.172548e-01	47	39	410507.643516	1
124	7	92	51	bathroom	sun_atstyziqcmkahyxk.tif	410508.439054	410508.689334	410509.385482	7.172548e-01	41	none	NaN	NaN
124	7	93	31	bathroom	sun_akiytfaagpdsphgz.tif	410510.157105	410510.407290	410511.103635	8.006565e-01	21	none	NaN	NaN
124	7	94	29	bathroom	sun_ahqjwnzgolcaoidx.tif	410511.875178	410512.125520	410512.821730	8.340172e-01	19	none	NaN	NaN
124	7	95	54	bathroom	sun_auzqhkafidnkrwmo.tif	410513.593235	410513.843403	410514.539861	8.506975e-01	44	37	410515.427606	1
124	7	96	49	bathroom	sun_asfwthctfqerjvxr.tif	410516.228713	410516.478267	410517.175134	7.672958e-01	39	none	NaN	NaN
124	7	97	52	bathroom	sun_aunuadmjocsddsrl.tif	410517.946764	410518.197117	410518.893177	7.672958e-01	42	none	NaN	NaN
124	7	98	28	bathroom	sun_ahijqszoswveeyji.tif	410519.664840	410519.915174	410520.611358	6.838941e-01	18	none	NaN	NaN
124	7	99	21	bathroom	sun_aggnnqpdorgxpvce.tif	410521.382901	410521.633006	410522.329487	7.005744e-01	11	37	410523.491851	1
124	7	100	27	bathroom	sun_ahcvzmoyaycdoftf.tif	410524.285263	410524.535462	410525.231798	7.672958e-01	17	none	NaN	NaN
124	8	1	66	kitchen	sun_aapllqyqlykszopd.tif	410581.431752	410581.681954	410582.378216	6.838941e-01	56	none	NaN	NaN
124	8	2	91	kitchen	sun_ahljzhgcdpomplvg.tif	410583.149803	410583.399999	410584.096351	7.506155e-01	81	37	410585.019282	1
124	8	3	104	kitchen	sun_auticobqsbwgoppi.tif	410585.818623	410586.068844	410586.765137	8.506975e-01	94	none	NaN	NaN
124	8	4	109	kitchen	sun_aypmqwcualkenuoe.tif	410587.536687	410587.786980	410588.483105	7.839762e-01	99	none	NaN	NaN
124	8	5	81	kitchen	sun_aehawpgmrlhlvcow.tif	410589.254744	410589.505046	410590.201247	7.172548e-01	71	37	410591.067393	1
124	8	6	101	kitchen	sun_aqeaevwwwjoqhzvl.tif	410591.856860	410592.106960	410592.803377	7.172548e-01	91	none	NaN	NaN
124	8	7	85	kitchen	sun_afuyedyxivkhecmu.tif	410593.574932	410593.825244	410594.521412	8.173369e-01	75	none	NaN	NaN
124	8	8	83	kitchen	sun_aeqdocilnnpuvuhx.tif	410595.293002	410595.543095	410596.239410	7.005744e-01	73	none	NaN	NaN
124	8	9	80	kitchen	sun_aegoxogugdkwpmpj.tif	410597.011056	410597.261162	410597.957612	8.006565e-01	70	none	NaN	NaN
124	8	10	86	kitchen	sun_aggjlwcdjsjcaemh.tif	410598.729117	410598.979301	410599.675746	6.672138e-01	76	39	410600.587229	1
124	8	11	65	kitchen	sun_aamedkxepzlwuxes.tif	410601.381283	410601.631524	410602.327709	7.005744e-01	55	none	NaN	NaN
124	8	12	98	kitchen	sun_akchetnepxlcxhsu.tif	410603.099346	410603.349482	410604.045945	7.005744e-01	88	none	NaN	NaN
124	8	13	77	kitchen	sun_acxkpeoqbwcxfvip.tif	410604.817401	410605.067585	410605.764006	8.006565e-01	67	none	NaN	NaN
124	8	14	96	kitchen	sun_ajcbwwvdlsvjyzje.tif	410606.535465	410606.785677	410607.482064	8.340172e-01	86	none	NaN	NaN
124	8	15	84	kitchen	sun_aexklacwqwezaorf.tif	410608.253521	410608.503849	410609.200078	7.172548e-01	74	39	410610.123514	1
124	8	16	79	kitchen	sun_admlmbcdswaszruo.tif	410610.922428	410611.172547	410611.868980	7.506155e-01	69	none	NaN	NaN
124	8	17	89	kitchen	sun_agzzivivdpnawacl.tif	410612.640419	410612.890692	410613.586833	8.506975e-01	79	37	410614.467597	1
124	8	18	92	kitchen	sun_ahpczsiumwwocjkv.tif	410615.259227	410615.509477	410616.205825	8.340172e-01	82	none	NaN	NaN
124	8	19	93	kitchen	sun_ahspylgoovwmwvgk.tif	410616.977306	410617.227603	410617.923771	7.839762e-01	83	39	410619.411429	1
124	8	20	87	kitchen	sun_agorklincwxrdtga.tif	410620.213265	410620.463488	410621.159686	7.839762e-01	77	37	410621.915395	1
124	8	21	68	kitchen	sun_aaxxjlsuzvqlgylf.tif	410622.715270	410622.965516	410623.661678	6.838941e-01	58	none	NaN	NaN
124	8	22	76	kitchen	sun_acwjdupvyjsugpay.tif	410624.433349	410624.683629	410625.379877	6.505334e-01	66	none	NaN	NaN
124	8	23	67	kitchen	sun_aarfiyshqohlwkmo.tif	410626.151413	410626.401707	410627.097957	6.672138e-01	57	none	NaN	NaN
124	8	24	97	kitchen	sun_ajkqhtgcbgpcwrwn.tif	410627.869484	410628.119727	410628.816106	7.506155e-01	87	none	NaN	NaN
124	8	25	110	kitchen	sun_azmutvzbxypaceni.tif	410629.587549	410629.837800	410630.534147	7.172548e-01	100	none	NaN	NaN
124	8	26	105	kitchen	sun_avszsnwsbuqfgzbn.tif	410631.305601	410631.555949	410632.252203	7.839762e-01	95	none	NaN	NaN
124	8	27	70	kitchen	sun_abdxkyyxwfskuaqb.tif	410633.023658	410633.273784	410633.970216	8.506975e-01	60	none	NaN	NaN
124	8	28	69	kitchen	sun_abdenxonkemggwsq.tif	410634.741732	410634.991920	410635.688323	7.506155e-01	59	none	NaN	NaN
124	8	29	64	kitchen	sun_aadbddgrdsjugojn.tif	410636.459793	410636.709950	410637.406268	8.506975e-01	54	none	NaN	NaN
124	8	30	72	kitchen	sun_abpwyqmlzafvklqo.tif	410638.177856	410638.429117	410639.124341	7.672958e-01	62	none	NaN	NaN
124	8	31	71	kitchen	sun_abftihopvusyfakt.tif	410639.895931	410640.146019	410640.842344	7.506155e-01	61	none	NaN	NaN
124	8	32	108	kitchen	sun_aymvwlarqodbwuoc.tif	410641.614022	410641.864074	410642.560542	8.340172e-01	98	none	NaN	NaN
124	8	33	102	kitchen	sun_auaiucuqpdausiva.tif	410643.332048	410643.582290	410644.278493	7.339351e-01	92	none	NaN	NaN
124	8	34	75	kitchen	sun_acgtpgfybqjmzeyw.tif	410645.050099	410645.300416	410645.996587	7.839762e-01	65	none	NaN	NaN
124	8	35	100	kitchen	sun_amjjdeyrggfqgmom.tif	410646.768172	410647.018431	410647.714737	8.173369e-01	90	none	NaN	NaN
124	8	36	74	kitchen	sun_acfmftudsenhrfhy.tif	410648.486234	410648.736391	410649.432719	7.672958e-01	64	none	NaN	NaN
124	8	37	73	kitchen	sun_abrcnpqqhmjwekyf.tif	410650.204290	410650.454514	410651.150779	8.006565e-01	63	none	NaN	NaN
124	8	38	94	kitchen	sun_ahywdevtimnqcsln.tif	410651.922366	410652.172599	410652.868890	8.173369e-01	84	none	NaN	NaN
124	8	39	106	kitchen	sun_awcpdzzznmweyyhv.tif	410653.640430	410653.890594	410654.586997	6.838941e-01	96	none	NaN	NaN
124	8	40	103	kitchen	sun_aunzlwrbjumxhwdj.tif	410655.358496	410655.608796	410656.305055	7.172548e-01	93	none	NaN	NaN
124	8	41	99	kitchen	sun_akcjzhbbjlbogpdi.tif	410657.076542	410657.326825	410658.023038	7.506155e-01	89	none	NaN	NaN
124	8	42	63	kitchen	labelme_rykdqxenmhulbdn.tif	410658.794613	410659.044778	410659.741149	8.340172e-01	53	none	NaN	NaN
124	8	43	61	kitchen	labelme_brsyyvweiuaazfr.tif	410660.512678	410660.762950	410661.459302	7.506155e-01	51	none	NaN	NaN
124	8	44	88	kitchen	sun_agubuxuukhzyzpdp.tif	410662.230748	410662.480928	410663.177368	7.672958e-01	78	none	NaN	NaN
124	8	45	95	kitchen	sun_aixorpehvfykdynp.tif	410663.948810	410664.198975	410664.895423	7.172548e-01	85	none	NaN	NaN
124	8	46	62	kitchen	labelme_kxvouciolcpqplr.tif	410665.666871	410665.917098	410666.613335	7.839762e-01	52	none	NaN	NaN
124	8	47	78	kitchen	sun_adgqasybjyktddhj.tif	410667.384921	410667.635038	410668.331533	8.340172e-01	68	none	NaN	NaN
124	8	48	82	kitchen	sun_aenotlpyftoioydp.tif	410669.102995	410669.353157	410670.049463	6.672138e-01	72	39	410671.227398	0
124	8	49	90	kitchen	sun_ahdycvpopffkzzsu.tif	410672.022058	410672.272263	410672.968639	7.339351e-01	80	none	NaN	NaN
124	8	50	107	kitchen	sun_axyyrmzcupyhlivc.tif	410673.740099	410673.990261	410674.686566	6.838941e-01	97	none	NaN	NaN
124	8	51	109	kitchen	sun_aypmqwcualkenuoe.tif	410675.458159	410675.708531	410676.404757	7.672958e-01	99	none	NaN	NaN
124	8	52	75	kitchen	sun_acgtpgfybqjmzeyw.tif	410677.176231	410677.426510	410678.122650	7.172548e-01	65	none	NaN	NaN
124	8	53	76	kitchen	sun_acwjdupvyjsugpay.tif	410678.894289	410679.144448	410679.840811	6.672138e-01	66	none	NaN	NaN
124	8	54	66	kitchen	sun_aapllqyqlykszopd.tif	410680.612349	410680.862707	410681.558959	6.505334e-01	56	none	NaN	NaN
124	8	55	107	kitchen	sun_axyyrmzcupyhlivc.tif	410682.330404	410682.580609	410683.276899	7.005744e-01	97	37	410684.915347	1
124	8	56	64	kitchen	sun_aadbddgrdsjugojn.tif	410685.716502	410685.966836	410686.663099	8.340172e-01	54	37	410688.563424	1
124	8	57	101	kitchen	sun_aqeaevwwwjoqhzvl.tif	410689.352799	410689.603150	410690.299292	6.838941e-01	91	none	NaN	NaN
124	8	58	79	kitchen	sun_admlmbcdswaszruo.tif	410691.070865	410691.320941	410692.017449	7.339351e-01	69	none	NaN	NaN
124	8	59	61	kitchen	labelme_brsyyvweiuaazfr.tif	410692.788929	410693.039166	410693.735351	7.672958e-01	51	none	NaN	NaN
124	8	60	92	kitchen	sun_ahpczsiumwwocjkv.tif	410694.506986	410694.757248	410695.453444	7.672958e-01	82	none	NaN	NaN
124	8	61	63	kitchen	labelme_rykdqxenmhulbdn.tif	410696.225053	410696.475256	410697.171606	7.339351e-01	53	none	NaN	NaN
124	8	62	93	kitchen	sun_ahspylgoovwmwvgk.tif	410697.943108	410698.193409	410698.889612	7.339351e-01	83	none	NaN	NaN
124	8	63	106	kitchen	sun_awcpdzzznmweyyhv.tif	410699.661177	410699.911501	410700.607715	7.005744e-01	96	none	NaN	NaN
124	8	64	83	kitchen	sun_aeqdocilnnpuvuhx.tif	410701.379244	410701.629361	410702.325844	6.838941e-01	73	none	NaN	NaN
124	8	65	70	kitchen	sun_abdxkyyxwfskuaqb.tif	410703.097301	410703.347432	410704.043864	7.005744e-01	60	none	NaN	NaN
124	8	66	84	kitchen	sun_aexklacwqwezaorf.tif	410704.815379	410705.065610	410705.761952	7.672958e-01	74	none	NaN	NaN
124	8	67	78	kitchen	sun_adgqasybjyktddhj.tif	410706.533419	410706.783649	410707.479888	8.006565e-01	68	none	NaN	NaN
124	8	68	77	kitchen	sun_acxkpeoqbwcxfvip.tif	410708.251498	410708.501739	410709.197908	7.839762e-01	67	none	NaN	NaN
124	8	69	74	kitchen	sun_acfmftudsenhrfhy.tif	410709.969550	410710.219908	410710.916156	8.173369e-01	64	none	NaN	NaN
124	8	70	94	kitchen	sun_ahywdevtimnqcsln.tif	410711.687620	410711.937745	410712.634030	7.005744e-01	84	37	410714.539184	0
124	8	71	95	kitchen	sun_aixorpehvfykdynp.tif	410715.340595	410715.590688	410716.287111	6.672138e-01	85	39	410717.491457	1
124	8	72	73	kitchen	sun_abrcnpqqhmjwekyf.tif	410718.292999	410718.543271	410719.239602	8.006565e-01	63	37	410720.363422	1
124	8	73	88	kitchen	sun_agubuxuukhzyzpdp.tif	410721.161985	410721.411814	410722.108612	8.173369e-01	78	none	NaN	NaN
124	8	74	98	kitchen	sun_akchetnepxlcxhsu.tif	410722.880073	410723.130300	410723.826496	8.006565e-01	88	none	NaN	NaN
124	8	75	80	kitchen	sun_aegoxogugdkwpmpj.tif	410724.598077	410724.848385	410725.544496	6.672138e-01	70	37	410726.523495	0
124	8	76	65	kitchen	sun_aamedkxepzlwuxes.tif	410727.316992	410727.567235	410728.263629	7.672958e-01	55	none	NaN	NaN
124	8	77	103	kitchen	sun_aunzlwrbjumxhwdj.tif	410729.035035	410729.285419	410729.981526	7.339351e-01	93	none	NaN	NaN
124	8	78	86	kitchen	sun_aggjlwcdjsjcaemh.tif	410730.753130	410731.019967	410731.699643	8.006565e-01	76	none	NaN	NaN
124	8	79	71	kitchen	sun_abftihopvusyfakt.tif	410732.471200	410732.721509	410733.417819	7.506155e-01	61	none	NaN	NaN
124	8	80	81	kitchen	sun_aehawpgmrlhlvcow.tif	410734.189252	410734.439415	410735.135785	8.340172e-01	71	none	NaN	NaN
124	8	81	96	kitchen	sun_ajcbwwvdlsvjyzje.tif	410735.907309	410736.157570	410736.853752	6.672138e-01	86	none	NaN	NaN
124	8	82	102	kitchen	sun_auaiucuqpdausiva.tif	410737.625379	410737.875697	410738.571831	7.005744e-01	92	none	NaN	NaN
124	8	83	62	kitchen	labelme_kxvouciolcpqplr.tif	410739.343450	410739.593697	410740.290119	7.339351e-01	52	none	NaN	NaN
124	8	84	108	kitchen	sun_aymvwlarqodbwuoc.tif	410741.061504	410741.311799	410742.007914	6.505334e-01	98	none	NaN	NaN
124	8	85	72	kitchen	sun_abpwyqmlzafvklqo.tif	410742.779576	410743.029697	410743.726023	8.173369e-01	62	none	NaN	NaN
124	8	86	87	kitchen	sun_agorklincwxrdtga.tif	410744.497645	410744.747789	410745.444195	7.339351e-01	77	none	NaN	NaN
124	8	87	90	kitchen	sun_ahdycvpopffkzzsu.tif	410746.215689	410746.465835	410747.162107	8.006565e-01	80	none	NaN	NaN
124	8	88	82	kitchen	sun_aenotlpyftoioydp.tif	410747.933761	410748.183891	410748.880288	6.838941e-01	72	none	NaN	NaN
124	8	89	100	kitchen	sun_amjjdeyrggfqgmom.tif	410749.651811	410749.901987	410750.598330	7.172548e-01	90	37	410753.971281	0
124	8	90	67	kitchen	sun_aarfiyshqohlwkmo.tif	410754.772630	410755.022781	410755.719049	7.005744e-01	57	none	NaN	NaN
124	8	91	104	kitchen	sun_auticobqsbwgoppi.tif	410756.490715	410756.740876	410757.437140	8.173369e-01	94	none	NaN	NaN
124	8	92	110	kitchen	sun_azmutvzbxypaceni.tif	410758.208777	410758.458911	410759.155191	7.672958e-01	100	none	NaN	NaN
124	8	93	105	kitchen	sun_avszsnwsbuqfgzbn.tif	410759.926827	410760.176997	410760.873336	8.173369e-01	95	none	NaN	NaN
124	8	94	97	kitchen	sun_ajkqhtgcbgpcwrwn.tif	410761.644912	410761.895214	410762.591531	8.340172e-01	87	none	NaN	NaN
124	8	95	85	kitchen	sun_afuyedyxivkhecmu.tif	410763.362964	410763.613215	410764.309537	8.340172e-01	75	none	NaN	NaN
124	8	96	89	kitchen	sun_agzzivivdpnawacl.tif	410765.081043	410765.331292	410766.027577	7.839762e-01	79	none	NaN	NaN
124	8	97	91	kitchen	sun_ahljzhgcdpomplvg.tif	410766.799102	410767.049295	410767.745645	6.672138e-01	81	none	NaN	NaN
124	8	98	99	kitchen	sun_akcjzhbbjlbogpdi.tif	410768.517164	410768.767346	410769.463622	6.505334e-01	89	none	NaN	NaN
124	8	99	68	kitchen	sun_aaxxjlsuzvqlgylf.tif	410770.235202	410770.485435	410771.181666	6.838941e-01	58	none	NaN	NaN
124	8	100	69	kitchen	sun_abdenxonkemggwsq.tif	410771.953299	410772.203569	410772.899883	6.505334e-01	59	none	NaN	NaN
124	9	1	11	bathroom	labelme_sfxiulhjbhlyiyt.tif	410801.393866	410801.644223	410802.307096	7.839762e-01	1	none	NaN	NaN
124	9	2	24	bathroom	sun_agrwbmhcpmfuwmsg.tif	410803.078595	410803.328738	410803.991810	8.506975e-01	14	none	NaN	NaN
124	9	3	60	bathroom	sun_azqyogdvyhahyram.tif	410804.763299	410805.013464	410805.676554	7.005744e-01	50	none	NaN	NaN
124	9	4	19	bathroom	sun_aclfzgynxzxlbepz.tif	410806.447998	410806.698216	410807.361235	7.839762e-01	9	none	NaN	NaN
124	9	5	14	bathroom	sun_abapwbhyhkfixyex.tif	410808.132701	410808.383045	410809.045856	8.173369e-01	4	none	NaN	NaN
124	9	6	15	bathroom	sun_abjtwfukuwddzted.tif	410809.817402	410810.067690	410810.730584	6.838941e-01	5	39	410813.131393	1
124	9	7	21	bathroom	sun_aggnnqpdorgxpvce.tif	410813.920730	410814.171019	410814.833825	7.506155e-01	11	none	NaN	NaN
124	9	8	38	bathroom	sun_anhioqovhscjqqwb.tif	410815.605453	410815.855761	410816.518627	6.505334e-01	28	none	NaN	NaN
124	9	9	44	bathroom	sun_apkruvsevgegsdwp.tif	410817.290150	410817.540254	410818.203372	6.672138e-01	34	none	NaN	NaN
124	9	10	56	bathroom	sun_awnqiikzaispgmwo.tif	410818.974854	410819.225289	410819.888032	6.505334e-01	46	none	NaN	NaN
124	9	11	16	bathroom	sun_acduarbnmmoglmiv.tif	410820.659551	410820.909752	410821.572689	8.340172e-01	6	none	NaN	NaN
124	9	12	45	bathroom	sun_apkxzenqapsujocq.tif	410822.344258	410822.594108	410823.257492	8.006565e-01	35	none	NaN	NaN
124	9	13	18	bathroom	sun_acgyywnybuveqsro.tif	410824.028952	410824.279147	410824.942182	8.340172e-01	8	none	NaN	NaN
124	9	14	20	bathroom	sun_afcoljnjfoxjtgja.tif	410825.713692	410825.963764	410826.626961	7.839762e-01	10	37	410827.547249	1
124	9	15	49	bathroom	sun_asfwthctfqerjvxr.tif	410828.349135	410828.599473	410829.262384	8.173369e-01	39	none	NaN	NaN
124	9	16	31	bathroom	sun_akiytfaagpdsphgz.tif	410830.033837	410830.283939	410830.947025	7.672958e-01	21	none	NaN	NaN
124	9	17	17	bathroom	sun_acegryoqftbzowsg.tif	410831.718546	410831.968775	410832.631719	7.506155e-01	7	none	NaN	NaN
124	9	18	54	bathroom	sun_auzqhkafidnkrwmo.tif	410833.403234	410833.653513	410834.316356	8.506975e-01	44	none	NaN	NaN
124	9	19	50	bathroom	sun_aspsyogrekjtfozg.tif	410835.087946	410835.338176	410836.001145	8.173369e-01	40	none	NaN	NaN
124	9	20	34	bathroom	sun_alkosphxlxwjwgjd.tif	410836.772632	410837.022899	410837.685897	7.339351e-01	24	37	410839.507412	1
124	9	21	53	bathroom	sun_ausgutylgojavyoq.tif	410840.308860	410840.559151	410841.222015	6.838941e-01	43	none	NaN	NaN
124	9	22	13	bathroom	sun_aavhrsfjbserjtht.tif	410841.993563	410842.243711	410842.906663	6.672138e-01	3	none	NaN	NaN
124	9	23	52	bathroom	sun_aunuadmjocsddsrl.tif	410843.678287	410843.928392	410844.591386	6.505334e-01	42	none	NaN	NaN
124	9	24	12	bathroom	sun_aapitsgbtktqubfy.tif	410845.362986	410845.612781	410846.276210	7.506155e-01	2	none	NaN	NaN
124	9	25	39	bathroom	sun_anryaplzeujmzfkd.tif	410847.047679	410847.297792	410847.960794	7.339351e-01	29	none	NaN	NaN
124	9	26	29	bathroom	sun_ahqjwnzgolcaoidx.tif	410848.732390	410848.982666	410849.645583	7.172548e-01	19	none	NaN	NaN
124	9	27	26	bathroom	sun_ahaulkltgpkeeemi.tif	410850.417083	410850.667199	410851.330338	6.672138e-01	16	37	410852.955360	1
124	9	28	51	bathroom	sun_atstyziqcmkahyxk.tif	410853.753120	410854.003399	410854.666231	7.172548e-01	41	none	NaN	NaN
124	9	29	41	bathroom	sun_aoybiabnpadelefl.tif	410855.437824	410855.687948	410856.350962	7.839762e-01	31	none	NaN	NaN
124	9	30	28	bathroom	sun_ahijqszoswveeyji.tif	410857.122529	410857.372612	410858.035760	7.339351e-01	18	none	NaN	NaN
124	9	31	57	bathroom	sun_axldvoqbuvuggfmq.tif	410858.807238	410859.057538	410859.720469	8.006565e-01	47	none	NaN	NaN
124	9	32	32	bathroom	sun_aleqenyvunhactkl.tif	410860.491951	410860.742135	410861.405231	7.005744e-01	22	39	410862.227224	1
124	9	33	25	bathroom	sun_agyqfjcfkdcydepw.tif	410863.027334	410863.277653	410863.940464	8.006565e-01	15	none	NaN	NaN
124	9	34	30	bathroom	sun_ajlawzvmubibwbpy.tif	410864.712034	410864.962262	410865.625132	8.173369e-01	20	none	NaN	NaN
124	9	35	58	bathroom	sun_axxbkopsgyouuebh.tif	410866.396733	410866.646898	410867.309980	7.506155e-01	48	none	NaN	NaN
124	9	36	48	bathroom	sun_aqrpegblszgcoujh.tif	410868.081438	410868.331631	410868.994643	7.672958e-01	38	none	NaN	NaN
124	9	37	36	bathroom	sun_ambriybtogmepttm.tif	410869.766134	410870.016312	410870.679337	8.173369e-01	26	none	NaN	NaN
124	9	38	33	bathroom	sun_aljolscmmzydegqp.tif	410871.450845	410871.701173	410872.364104	7.672958e-01	23	none	NaN	NaN
124	9	39	42	bathroom	sun_apeeialkgkuxddgh.tif	410873.135542	410873.385725	410874.048772	7.839762e-01	32	none	NaN	NaN
124	9	40	55	bathroom	sun_avhrdrntsqrjzccq.tif	410874.820253	410875.070433	410875.733440	6.672138e-01	45	39	410877.755277	0
124	9	41	46	bathroom	sun_apmqjbnwghzuhhzh.tif	410878.556620	410878.806870	410879.469759	6.838941e-01	36	none	NaN	NaN
124	9	42	22	bathroom	sun_agguqiubmwhqqunb.tif	410880.241312	410880.491629	410881.154367	6.505334e-01	12	none	NaN	NaN
124	9	43	27	bathroom	sun_ahcvzmoyaycdoftf.tif	410881.926022	410882.176210	410882.839131	6.838941e-01	17	none	NaN	NaN
124	9	44	47	bathroom	sun_apynckhmoftszqoq.tif	410883.610729	410883.860899	410884.523985	6.838941e-01	37	none	NaN	NaN
124	9	45	59	bathroom	sun_axyrejkiiaqiurjk.tif	410885.295427	410885.545600	410886.208489	7.339351e-01	49	none	NaN	NaN
124	9	46	35	bathroom	sun_alotolagknyrgtsk.tif	410886.980212	410887.230458	410887.893304	6.672138e-01	25	37	410889.523244	1
124	9	47	40	bathroom	sun_aofnryafpsjimzsb.tif	410890.316174	410890.566311	410891.229384	7.005744e-01	30	37	410893.435364	0
124	9	48	23	bathroom	sun_aghyqhbptboemmoq.tif	410894.236032	410894.486170	410895.149296	7.839762e-01	13	none	NaN	NaN
124	9	49	43	bathroom	sun_apjevzvycyhuqghb.tif	410895.920729	410896.170891	410896.833987	6.672138e-01	33	none	NaN	NaN
124	9	50	37	bathroom	sun_amzlamotzwfkwjco.tif	410897.605457	410897.855541	410898.518532	8.006565e-01	27	none	NaN	NaN
