subject	block	trial	texture	category	image	trialOnset	itiOnset	trialEnd	iti	EEGtrigger	responseKey	responseTime	accuracy
115	1	1	13	bathroom	sun_aavhrsfjbserjtht.tif	320083.770667	320084.029252	320084.769469	7.507053e-01	3	none	NaN	NaN
115	1	2	49	bathroom	sun_asfwthctfqerjvxr.tif	320085.539081	320085.797670	320086.537925	8.424582e-01	39	none	NaN	NaN
115	1	3	25	bathroom	sun_agyqfjcfkdcydepw.tif	320087.307497	320087.566091	320088.306205	6.589524e-01	15	39	320091.813968	1
115	1	4	38	bathroom	sun_anhioqovhscjqqwb.tif	320092.587727	320092.846318	320093.586433	7.840700e-01	28	none	NaN	NaN
115	1	5	37	bathroom	sun_amzlamotzwfkwjco.tif	320094.364491	320094.623084	320095.363277	7.173406e-01	27	none	NaN	NaN
115	1	6	16	bathroom	sun_acduarbnmmoglmiv.tif	320096.132908	320096.391491	320097.131658	6.923171e-01	6	none	NaN	NaN
115	1	7	41	bathroom	sun_aoybiabnpadelefl.tif	320097.901327	320098.159913	320098.900172	6.923171e-01	31	39	320101.246210	1
115	1	8	55	bathroom	sun_avhrdrntsqrjzccq.tif	320102.022079	320102.280666	320103.020858	6.923171e-01	45	none	NaN	NaN
115	1	9	60	bathroom	sun_azqyogdvyhahyram.tif	320103.790495	320104.049081	320104.789277	7.423641e-01	50	37	320106.134138	1
115	1	10	29	bathroom	sun_ahqjwnzgolcaoidx.tif	320106.910250	320107.168839	320107.908992	7.340230e-01	19	none	NaN	NaN
115	1	11	15	bathroom	sun_abjtwfukuwddzted.tif	320108.678672	320108.937254	320109.677330	8.341170e-01	5	37	320110.718094	1
115	1	12	39	bathroom	sun_anryaplzeujmzfkd.tif	320111.489782	320111.748374	320112.488505	6.756348e-01	29	none	NaN	NaN
115	1	13	17	bathroom	sun_acegryoqftbzowsg.tif	320113.258203	320113.516797	320114.257011	8.090935e-01	7	none	NaN	NaN
115	1	14	30	bathroom	sun_ajlawzvmubibwbpy.tif	320115.026623	320115.285212	320116.025412	8.174347e-01	20	none	NaN	NaN
115	1	15	23	bathroom	sun_aghyqhbptboemmoq.tif	320116.795038	320117.053633	320117.793798	7.840700e-01	13	none	NaN	NaN
115	1	16	53	bathroom	sun_ausgutylgojavyoq.tif	320118.563458	320118.822069	320119.562088	7.507053e-01	43	none	NaN	NaN
115	1	17	59	bathroom	sun_axyrejkiiaqiurjk.tif	320120.331878	320120.590468	320121.330586	7.423641e-01	49	none	NaN	NaN
115	1	18	58	bathroom	sun_axxbkopsgyouuebh.tif	320122.100295	320122.358886	320123.099089	7.340230e-01	48	none	NaN	NaN
115	1	19	14	bathroom	sun_abapwbhyhkfixyex.tif	320123.868712	320124.127304	320124.867346	7.089995e-01	4	none	NaN	NaN
115	1	20	33	bathroom	sun_aljolscmmzydegqp.tif	320125.637132	320125.895723	320126.635960	6.923171e-01	23	none	NaN	NaN
115	1	21	46	bathroom	sun_apmqjbnwghzuhhzh.tif	320127.405551	320127.664142	320128.404215	7.340230e-01	36	39	320131.814122	1
115	1	22	18	bathroom	sun_acgyywnybuveqsro.tif	320132.585681	320132.844271	320133.584474	6.756348e-01	8	none	NaN	NaN
115	1	23	19	bathroom	sun_aclfzgynxzxlbepz.tif	320134.354099	320134.612690	320135.352736	7.757288e-01	9	none	NaN	NaN
115	1	24	11	bathroom	labelme_sfxiulhjbhlyiyt.tif	320136.122521	320136.381107	320137.121332	6.672936e-01	1	37	320138.757971	0
115	1	25	27	bathroom	sun_ahcvzmoyaycdoftf.tif	320139.534234	320139.792822	320140.532952	8.257758e-01	17	none	NaN	NaN
115	1	26	21	bathroom	sun_aggnnqpdorgxpvce.tif	320141.302654	320141.561238	320142.301449	7.590465e-01	11	none	NaN	NaN
115	1	27	42	bathroom	sun_apeeialkgkuxddgh.tif	320143.071071	320143.329658	320144.069711	7.590465e-01	32	none	NaN	NaN
115	1	28	56	bathroom	sun_awnqiikzaispgmwo.tif	320144.839486	320145.098078	320145.838148	8.174347e-01	46	none	NaN	NaN
115	1	29	44	bathroom	sun_apkruvsevgegsdwp.tif	320146.607906	320146.866490	320147.606741	7.423641e-01	34	none	NaN	NaN
115	1	30	20	bathroom	sun_afcoljnjfoxjtgja.tif	320148.376321	320148.634917	320149.374981	7.173406e-01	10	none	NaN	NaN
115	1	31	28	bathroom	sun_ahijqszoswveeyji.tif	320150.144742	320150.403332	320151.143448	8.424582e-01	18	none	NaN	NaN
115	1	32	26	bathroom	sun_ahaulkltgpkeeemi.tif	320151.913157	320152.171753	320152.911979	7.673876e-01	16	none	NaN	NaN
115	1	33	22	bathroom	sun_agguqiubmwhqqunb.tif	320153.681576	320153.940168	320154.680463	6.923171e-01	12	none	NaN	NaN
115	1	34	47	bathroom	sun_apynckhmoftszqoq.tif	320155.449996	320155.708585	320156.448814	7.590465e-01	37	none	NaN	NaN
115	1	35	45	bathroom	sun_apkxzenqapsujocq.tif	320157.218416	320157.477023	320158.217057	8.174347e-01	35	none	NaN	NaN
115	1	36	34	bathroom	sun_alkosphxlxwjwgjd.tif	320158.986834	320159.245417	320159.985584	8.341170e-01	24	none	NaN	NaN
115	1	37	12	bathroom	sun_aapitsgbtktqubfy.tif	320160.755255	320161.013839	320161.753904	8.090935e-01	2	none	NaN	NaN
115	1	38	52	bathroom	sun_aunuadmjocsddsrl.tif	320162.523667	320162.782257	320163.522293	7.089995e-01	42	none	NaN	NaN
115	1	39	50	bathroom	sun_aspsyogrekjtfozg.tif	320164.283747	320164.542335	320165.282489	7.924112e-01	40	none	NaN	NaN
115	1	40	54	bathroom	sun_auzqhkafidnkrwmo.tif	320166.052164	320166.310756	320167.050971	6.506113e-01	44	none	NaN	NaN
115	1	41	31	bathroom	sun_akiytfaagpdsphgz.tif	320167.820581	320168.079170	320168.819375	6.589524e-01	21	39	320173.181946	1
115	1	42	48	bathroom	sun_aqrpegblszgcoujh.tif	320173.959996	320174.218587	320174.958623	8.090935e-01	38	none	NaN	NaN
115	1	43	35	bathroom	sun_alotolagknyrgtsk.tif	320175.728415	320175.987006	320176.727103	8.007523e-01	25	none	NaN	NaN
115	1	44	24	bathroom	sun_agrwbmhcpmfuwmsg.tif	320177.496835	320177.755423	320178.495644	7.256818e-01	14	none	NaN	NaN
115	1	45	40	bathroom	sun_aofnryafpsjimzsb.tif	320179.265252	320179.523845	320180.264051	7.840700e-01	30	none	NaN	NaN
115	1	46	36	bathroom	sun_ambriybtogmepttm.tif	320181.033673	320181.292259	320182.032341	7.757288e-01	26	none	NaN	NaN
115	1	47	57	bathroom	sun_axldvoqbuvuggfmq.tif	320182.802089	320183.060680	320183.800758	8.257758e-01	47	none	NaN	NaN
115	1	48	43	bathroom	sun_apjevzvycyhuqghb.tif	320184.570503	320184.829096	320185.569297	6.506113e-01	33	none	NaN	NaN
115	1	49	32	bathroom	sun_aleqenyvunhactkl.tif	320186.338922	320186.597517	320187.337681	7.006583e-01	22	none	NaN	NaN
115	1	50	51	bathroom	sun_atstyziqcmkahyxk.tif	320188.107343	320188.365930	320189.106097	8.007523e-01	41	none	NaN	NaN
115	1	51	59	bathroom	sun_axyrejkiiaqiurjk.tif	320189.875761	320190.134347	320190.874538	7.006583e-01	49	none	NaN	NaN
115	1	52	11	bathroom	labelme_sfxiulhjbhlyiyt.tif	320191.644180	320191.902765	320192.642838	7.340230e-01	1	none	NaN	NaN
115	1	53	25	bathroom	sun_agyqfjcfkdcydepw.tif	320193.412595	320193.671185	320194.411366	7.507053e-01	15	none	NaN	NaN
115	1	54	16	bathroom	sun_acduarbnmmoglmiv.tif	320195.181019	320195.439605	320196.179805	7.173406e-01	6	none	NaN	NaN
115	1	55	21	bathroom	sun_aggnnqpdorgxpvce.tif	320196.949428	320197.208022	320197.948248	7.590465e-01	11	none	NaN	NaN
115	1	56	51	bathroom	sun_atstyziqcmkahyxk.tif	320198.717850	320198.976440	320199.716671	7.924112e-01	41	none	NaN	NaN
115	1	57	32	bathroom	sun_aleqenyvunhactkl.tif	320200.486273	320200.744860	320201.485018	7.924112e-01	22	none	NaN	NaN
115	1	58	33	bathroom	sun_aljolscmmzydegqp.tif	320202.254689	320202.513276	320203.253453	7.673876e-01	23	none	NaN	NaN
115	1	59	18	bathroom	sun_acgyywnybuveqsro.tif	320204.023105	320204.281697	320205.021862	7.089995e-01	8	none	NaN	NaN
115	1	60	36	bathroom	sun_ambriybtogmepttm.tif	320205.791527	320206.050115	320206.790282	7.840700e-01	26	none	NaN	NaN
115	1	61	13	bathroom	sun_aavhrsfjbserjtht.tif	320207.559945	320207.818529	320208.558661	8.507993e-01	3	none	NaN	NaN
115	1	62	56	bathroom	sun_awnqiikzaispgmwo.tif	320209.328359	320209.586950	320210.327024	7.757288e-01	46	39	320213.126130	1
115	1	63	14	bathroom	sun_abapwbhyhkfixyex.tif	320213.899553	320214.158140	320214.898381	6.589524e-01	4	none	NaN	NaN
115	1	64	45	bathroom	sun_apkxzenqapsujocq.tif	320215.667970	320215.926563	320216.666596	8.090935e-01	35	none	NaN	NaN
115	1	65	38	bathroom	sun_anhioqovhscjqqwb.tif	320217.436393	320217.694978	320218.435240	8.257758e-01	28	37	320219.534157	1
115	1	66	44	bathroom	sun_apkruvsevgegsdwp.tif	320220.305900	320220.564491	320221.304552	8.007523e-01	34	37	320222.566089	1
115	1	67	35	bathroom	sun_alotolagknyrgtsk.tif	320223.342237	320223.600833	320224.340910	6.672936e-01	25	none	NaN	NaN
115	1	68	55	bathroom	sun_avhrdrntsqrjzccq.tif	320225.110660	320225.369249	320226.109499	6.756348e-01	45	39	320227.438312	1
115	1	69	22	bathroom	sun_agguqiubmwhqqunb.tif	320228.213729	320228.472315	320229.212411	6.839759e-01	12	none	NaN	NaN
115	1	70	24	bathroom	sun_agrwbmhcpmfuwmsg.tif	320229.982151	320230.240739	320230.980904	7.423641e-01	14	none	NaN	NaN
115	1	71	47	bathroom	sun_apynckhmoftszqoq.tif	320231.750565	320232.009160	320232.749315	8.341170e-01	37	none	NaN	NaN
115	1	72	53	bathroom	sun_ausgutylgojavyoq.tif	320233.518987	320233.777573	320234.517631	7.590465e-01	43	none	NaN	NaN
115	1	73	15	bathroom	sun_abjtwfukuwddzted.tif	320235.287408	320235.545996	320236.286206	8.007523e-01	5	none	NaN	NaN
115	1	74	28	bathroom	sun_ahijqszoswveeyji.tif	320237.055823	320237.314414	320238.054459	7.256818e-01	18	none	NaN	NaN
115	1	75	26	bathroom	sun_ahaulkltgpkeeemi.tif	320238.815901	320239.074492	320239.814705	8.174347e-01	16	37	320241.454084	1
115	1	76	58	bathroom	sun_axxbkopsgyouuebh.tif	320242.227611	320242.486200	320243.226426	6.839759e-01	48	none	NaN	NaN
115	1	77	17	bathroom	sun_acegryoqftbzowsg.tif	320243.996027	320244.254621	320244.994727	6.839759e-01	7	37	320245.958101	1
115	1	78	54	bathroom	sun_auzqhkafidnkrwmo.tif	320246.732071	320246.990662	320247.730812	8.341170e-01	44	none	NaN	NaN
115	1	79	30	bathroom	sun_ajlawzvmubibwbpy.tif	320248.500490	320248.759081	320249.499275	7.173406e-01	20	none	NaN	NaN
115	1	80	19	bathroom	sun_aclfzgynxzxlbepz.tif	320250.268908	320250.527497	320251.267542	8.257758e-01	9	none	NaN	NaN
115	1	81	60	bathroom	sun_azqyogdvyhahyram.tif	320252.037331	320252.295916	320253.036105	7.256818e-01	50	none	NaN	NaN
115	1	82	50	bathroom	sun_aspsyogrekjtfozg.tif	320253.805743	320254.064332	320254.804396	7.757288e-01	40	none	NaN	NaN
115	1	83	42	bathroom	sun_apeeialkgkuxddgh.tif	320255.574166	320255.832751	320256.572900	7.006583e-01	32	none	NaN	NaN
115	1	84	49	bathroom	sun_asfwthctfqerjvxr.tif	320257.342581	320257.601170	320258.341325	7.673876e-01	39	none	NaN	NaN
115	1	85	27	bathroom	sun_ahcvzmoyaycdoftf.tif	320259.110999	320259.369586	320260.109637	7.006583e-01	17	none	NaN	NaN
115	1	86	12	bathroom	sun_aapitsgbtktqubfy.tif	320260.879415	320261.138009	320261.878227	7.256818e-01	2	none	NaN	NaN
115	1	87	23	bathroom	sun_aghyqhbptboemmoq.tif	320262.647835	320262.906425	320263.646660	6.506113e-01	13	37	320265.718234	0
115	1	88	20	bathroom	sun_afcoljnjfoxjtgja.tif	320266.493312	320266.751899	320267.492015	8.424582e-01	10	none	NaN	NaN
115	1	89	40	bathroom	sun_aofnryafpsjimzsb.tif	320268.261729	320268.520320	320269.260559	6.589524e-01	30	none	NaN	NaN
115	1	90	39	bathroom	sun_anryaplzeujmzfkd.tif	320270.030146	320270.288740	320271.028898	6.839759e-01	29	none	NaN	NaN
115	1	91	43	bathroom	sun_apjevzvycyhuqghb.tif	320271.798568	320272.057154	320272.797311	8.257758e-01	33	none	NaN	NaN
115	1	92	34	bathroom	sun_alkosphxlxwjwgjd.tif	320273.566988	320273.825570	320274.565611	6.672936e-01	24	none	NaN	NaN
115	1	93	41	bathroom	sun_aoybiabnpadelefl.tif	320275.335401	320275.593991	320276.334084	8.424582e-01	31	none	NaN	NaN
115	1	94	46	bathroom	sun_apmqjbnwghzuhhzh.tif	320277.103819	320277.362415	320278.102592	6.756348e-01	36	none	NaN	NaN
115	1	95	57	bathroom	sun_axldvoqbuvuggfmq.tif	320278.872242	320279.130828	320279.870925	8.507993e-01	47	none	NaN	NaN
115	1	96	31	bathroom	sun_akiytfaagpdsphgz.tif	320280.640660	320280.899248	320281.639456	7.507053e-01	21	37	320282.870260	1
115	1	97	37	bathroom	sun_amzlamotzwfkwjco.tif	320283.643631	320283.902221	320284.642306	7.089995e-01	27	none	NaN	NaN
115	1	98	29	bathroom	sun_ahqjwnzgolcaoidx.tif	320285.412046	320285.670635	320286.410773	7.673876e-01	19	none	NaN	NaN
115	1	99	52	bathroom	sun_aunuadmjocsddsrl.tif	320287.180468	320287.439056	320288.179163	7.924112e-01	42	none	NaN	NaN
115	1	100	48	bathroom	sun_aqrpegblszgcoujh.tif	320288.948904	320289.207476	320289.947553	6.672936e-01	38	none	NaN	NaN
115	2	1	62	kitchen	labelme_kxvouciolcpqplr.tif	320298.116296	320298.374891	320299.064894	8.257758e-01	52	none	NaN	NaN
115	2	2	82	kitchen	sun_aenotlpyftoioydp.tif	320299.834668	320300.093257	320300.783356	7.006583e-01	72	none	NaN	NaN
115	2	3	80	kitchen	sun_aegoxogugdkwpmpj.tif	320301.553035	320301.811622	320302.501678	8.257758e-01	70	none	NaN	NaN
115	2	4	84	kitchen	sun_aexklacwqwezaorf.tif	320303.271401	320303.529992	320304.220170	7.507053e-01	74	none	NaN	NaN
115	2	5	88	kitchen	sun_agubuxuukhzyzpdp.tif	320304.989769	320305.248360	320305.938559	7.423641e-01	78	none	NaN	NaN
115	2	6	85	kitchen	sun_afuyedyxivkhecmu.tif	320306.708138	320306.966734	320307.656933	7.924112e-01	75	39	320311.806036	0
115	2	7	73	kitchen	sun_abrcnpqqhmjwekyf.tif	320312.580626	320312.839211	320313.529306	7.590465e-01	63	none	NaN	NaN
115	2	8	99	kitchen	sun_akcjzhbbjlbogpdi.tif	320314.298991	320314.557584	320315.247703	7.256818e-01	89	none	NaN	NaN
115	2	9	75	kitchen	sun_acgtpgfybqjmzeyw.tif	320316.017356	320316.275950	320316.966095	7.590465e-01	65	none	NaN	NaN
115	2	10	92	kitchen	sun_ahpczsiumwwocjkv.tif	320317.735730	320317.994320	320318.684315	7.590465e-01	82	none	NaN	NaN
115	2	11	67	kitchen	sun_aarfiyshqohlwkmo.tif	320319.454099	320319.712687	320320.402811	7.507053e-01	57	37	320321.134179	1
115	2	12	89	kitchen	sun_agzzivivdpnawacl.tif	320321.906527	320322.165111	320322.855295	7.089995e-01	79	none	NaN	NaN
115	2	13	87	kitchen	sun_agorklincwxrdtga.tif	320323.624895	320323.883483	320324.573597	8.341170e-01	77	none	NaN	NaN
115	2	14	70	kitchen	sun_abdxkyyxwfskuaqb.tif	320325.343264	320325.601858	320326.291985	7.006583e-01	60	none	NaN	NaN
115	2	15	69	kitchen	sun_abdenxonkemggwsq.tif	320327.061632	320327.320221	320328.010315	6.506113e-01	59	none	NaN	NaN
115	2	16	66	kitchen	sun_aapllqyqlykszopd.tif	320328.780002	320329.038614	320329.728631	7.340230e-01	56	39	320331.758026	1
115	2	17	104	kitchen	sun_auticobqsbwgoppi.tif	320332.533718	320332.792307	320333.482330	8.007523e-01	94	none	NaN	NaN
115	2	18	90	kitchen	sun_ahdycvpopffkzzsu.tif	320334.252089	320334.510678	320335.200687	6.839759e-01	80	none	NaN	NaN
115	2	19	96	kitchen	sun_ajcbwwvdlsvjyzje.tif	320335.970453	320336.229044	320336.919179	6.923171e-01	86	none	NaN	NaN
115	2	20	65	kitchen	sun_aamedkxepzlwuxes.tif	320337.688821	320337.947412	320338.637434	7.089995e-01	55	none	NaN	NaN
115	2	21	106	kitchen	sun_awcpdzzznmweyyhv.tif	320339.407194	320339.665781	320340.355971	7.673876e-01	96	none	NaN	NaN
115	2	22	83	kitchen	sun_aeqdocilnnpuvuhx.tif	320341.125558	320341.384146	320342.074223	8.424582e-01	73	none	NaN	NaN
115	2	23	64	kitchen	sun_aadbddgrdsjugojn.tif	320342.843924	320343.102516	320343.792613	7.840700e-01	54	none	NaN	NaN
115	2	24	61	kitchen	labelme_brsyyvweiuaazfr.tif	320344.562300	320344.820889	320345.510880	7.173406e-01	51	none	NaN	NaN
115	2	25	107	kitchen	sun_axyyrmzcupyhlivc.tif	320346.280666	320346.539255	320347.229403	7.340230e-01	97	none	NaN	NaN
115	2	26	91	kitchen	sun_ahljzhgcdpomplvg.tif	320347.999034	320348.257627	320348.947731	6.589524e-01	81	none	NaN	NaN
115	2	27	94	kitchen	sun_ahywdevtimnqcsln.tif	320349.717399	320349.975995	320350.666058	7.507053e-01	84	none	NaN	NaN
115	2	28	78	kitchen	sun_adgqasybjyktddhj.tif	320351.435776	320351.694360	320352.384379	7.256818e-01	68	none	NaN	NaN
115	2	29	102	kitchen	sun_auaiucuqpdausiva.tif	320353.154139	320353.412733	320354.102931	6.923171e-01	92	none	NaN	NaN
115	2	30	95	kitchen	sun_aixorpehvfykdynp.tif	320354.872507	320355.131098	320355.821172	6.672936e-01	85	none	NaN	NaN
115	2	31	81	kitchen	sun_aehawpgmrlhlvcow.tif	320356.590878	320356.849461	320357.539560	7.006583e-01	71	39	320359.854147	1
115	2	32	74	kitchen	sun_acfmftudsenhrfhy.tif	320360.628208	320360.886800	320361.576973	8.341170e-01	64	37	320362.710185	1
115	2	33	72	kitchen	sun_abpwyqmlzafvklqo.tif	320363.481032	320363.739620	320364.429719	7.089995e-01	62	none	NaN	NaN
115	2	34	109	kitchen	sun_aypmqwcualkenuoe.tif	320365.199406	320365.457994	320366.148162	7.173406e-01	99	37	320367.150191	1
115	2	35	63	kitchen	labelme_rykdqxenmhulbdn.tif	320367.927099	320368.185684	320368.875676	7.757288e-01	53	none	NaN	NaN
115	2	36	105	kitchen	sun_avszsnwsbuqfgzbn.tif	320369.645470	320369.904064	320370.594244	7.089995e-01	95	none	NaN	NaN
115	2	37	98	kitchen	sun_akchetnepxlcxhsu.tif	320371.363839	320371.622434	320372.312457	8.090935e-01	88	none	NaN	NaN
115	2	38	86	kitchen	sun_aggjlwcdjsjcaemh.tif	320373.082207	320373.340798	320374.030795	6.672936e-01	76	none	NaN	NaN
115	2	39	68	kitchen	sun_aaxxjlsuzvqlgylf.tif	320374.800578	320375.059166	320375.749347	7.590465e-01	58	none	NaN	NaN
115	2	40	71	kitchen	sun_abftihopvusyfakt.tif	320376.518947	320376.777538	320377.467596	8.424582e-01	61	none	NaN	NaN
115	2	41	93	kitchen	sun_ahspylgoovwmwvgk.tif	320378.237318	320378.495909	320379.186111	7.673876e-01	83	39	320381.750285	1
115	2	42	100	kitchen	sun_amjjdeyrggfqgmom.tif	320382.524892	320382.783484	320383.473534	8.174347e-01	90	none	NaN	NaN
115	2	43	108	kitchen	sun_aymvwlarqodbwuoc.tif	320384.243263	320384.501854	320385.191842	6.756348e-01	98	none	NaN	NaN
115	2	44	76	kitchen	sun_acwjdupvyjsugpay.tif	320385.953295	320386.211878	320386.901990	7.840700e-01	66	none	NaN	NaN
115	2	45	97	kitchen	sun_ajkqhtgcbgpcwrwn.tif	320387.671659	320387.930250	320388.620402	7.757288e-01	87	none	NaN	NaN
115	2	46	79	kitchen	sun_admlmbcdswaszruo.tif	320389.390025	320389.648614	320390.338740	8.257758e-01	69	none	NaN	NaN
115	2	47	77	kitchen	sun_acxkpeoqbwcxfvip.tif	320391.108392	320391.366980	320392.056994	7.924112e-01	67	none	NaN	NaN
115	2	48	103	kitchen	sun_aunzlwrbjumxhwdj.tif	320392.826765	320393.085356	320393.775346	7.840700e-01	93	none	NaN	NaN
115	2	49	110	kitchen	sun_azmutvzbxypaceni.tif	320394.545133	320394.803721	320395.493736	8.007523e-01	100	none	NaN	NaN
115	2	50	101	kitchen	sun_aqeaevwwwjoqhzvl.tif	320396.263500	320396.522088	320397.212232	7.173406e-01	91	none	NaN	NaN
115	2	51	88	kitchen	sun_agubuxuukhzyzpdp.tif	320397.981868	320398.240456	320398.930646	8.174347e-01	78	none	NaN	NaN
115	2	52	92	kitchen	sun_ahpczsiumwwocjkv.tif	320399.700239	320399.958827	320400.648852	6.923171e-01	82	39	320403.406040	1
115	2	53	66	kitchen	sun_aapllqyqlykszopd.tif	320404.179671	320404.438264	320405.128327	8.090935e-01	56	none	NaN	NaN
115	2	54	102	kitchen	sun_auaiucuqpdausiva.tif	320405.898044	320406.156634	320406.846809	7.924112e-01	92	37	320407.622311	1
115	2	55	78	kitchen	sun_adgqasybjyktddhj.tif	320408.400518	320408.659108	320409.349210	7.924112e-01	68	none	NaN	NaN
115	2	56	68	kitchen	sun_aaxxjlsuzvqlgylf.tif	320410.118887	320410.377478	320411.067641	6.756348e-01	58	none	NaN	NaN
115	2	57	62	kitchen	labelme_kxvouciolcpqplr.tif	320411.837259	320412.095847	320412.785852	6.589524e-01	52	none	NaN	NaN
115	2	58	100	kitchen	sun_amjjdeyrggfqgmom.tif	320413.547287	320413.805876	320414.496062	6.923171e-01	90	none	NaN	NaN
115	2	59	74	kitchen	sun_acfmftudsenhrfhy.tif	320415.265653	320415.524238	320416.214338	7.173406e-01	64	none	NaN	NaN
115	2	60	109	kitchen	sun_aypmqwcualkenuoe.tif	320416.984024	320417.242610	320417.932676	8.424582e-01	99	none	NaN	NaN
115	2	61	105	kitchen	sun_avszsnwsbuqfgzbn.tif	320418.702392	320418.960976	320419.650973	7.590465e-01	95	none	NaN	NaN
115	2	62	67	kitchen	sun_aarfiyshqohlwkmo.tif	320420.420755	320420.679350	320421.369346	6.839759e-01	57	none	NaN	NaN
115	2	63	83	kitchen	sun_aeqdocilnnpuvuhx.tif	320422.130784	320422.389396	320423.079563	6.672936e-01	73	none	NaN	NaN
115	2	64	90	kitchen	sun_ahdycvpopffkzzsu.tif	320423.849154	320424.107743	320424.797886	6.756348e-01	80	none	NaN	NaN
115	2	65	75	kitchen	sun_acgtpgfybqjmzeyw.tif	320425.567521	320425.826114	320426.516285	7.757288e-01	65	none	NaN	NaN
115	2	66	101	kitchen	sun_aqeaevwwwjoqhzvl.tif	320427.285888	320427.544483	320428.234634	7.757288e-01	91	none	NaN	NaN
115	2	67	82	kitchen	sun_aenotlpyftoioydp.tif	320429.004258	320429.262849	320429.952874	6.839759e-01	72	39	320431.478054	1
115	2	68	97	kitchen	sun_ajkqhtgcbgpcwrwn.tif	320432.249140	320432.507733	320433.197810	7.006583e-01	87	none	NaN	NaN
115	2	69	77	kitchen	sun_acxkpeoqbwcxfvip.tif	320433.967508	320434.226092	320434.916248	7.340230e-01	67	none	NaN	NaN
115	2	70	63	kitchen	labelme_rykdqxenmhulbdn.tif	320435.685869	320435.944468	320436.634497	7.423641e-01	53	none	NaN	NaN
115	2	71	87	kitchen	sun_agorklincwxrdtga.tif	320437.404245	320437.662836	320438.352939	8.341170e-01	77	none	NaN	NaN
115	2	72	84	kitchen	sun_aexklacwqwezaorf.tif	320439.122610	320439.381202	320440.071333	7.673876e-01	74	none	NaN	NaN
115	2	73	94	kitchen	sun_ahywdevtimnqcsln.tif	320440.840983	320441.099574	320441.789706	6.923171e-01	84	37	320442.814092	1
115	2	74	65	kitchen	sun_aamedkxepzlwuxes.tif	320443.585363	320443.843953	320444.533961	8.507993e-01	55	none	NaN	NaN
115	2	75	96	kitchen	sun_ajcbwwvdlsvjyzje.tif	320445.303737	320445.562322	320446.252440	7.507053e-01	86	39	320447.254166	1
115	2	76	106	kitchen	sun_awcpdzzznmweyyhv.tif	320448.031433	320448.290026	320448.980187	8.007523e-01	96	none	NaN	NaN
115	2	77	80	kitchen	sun_aegoxogugdkwpmpj.tif	320449.749806	320450.008390	320450.698388	8.257758e-01	70	37	320451.998215	1
115	2	78	95	kitchen	sun_aixorpehvfykdynp.tif	320452.769480	320453.028051	320453.718135	7.423641e-01	85	none	NaN	NaN
115	2	79	81	kitchen	sun_aehawpgmrlhlvcow.tif	320454.487830	320454.746415	320455.436613	8.174347e-01	71	none	NaN	NaN
115	2	80	76	kitchen	sun_acwjdupvyjsugpay.tif	320456.206200	320456.464790	320457.154783	6.589524e-01	66	39	320458.070184	1
115	2	81	61	kitchen	labelme_brsyyvweiuaazfr.tif	320458.842140	320459.100728	320459.790760	8.090935e-01	51	none	NaN	NaN
115	2	82	98	kitchen	sun_akchetnepxlcxhsu.tif	320460.560508	320460.819101	320461.509231	8.007523e-01	88	none	NaN	NaN
115	2	83	91	kitchen	sun_ahljzhgcdpomplvg.tif	320462.270537	320462.529128	320463.219159	6.506113e-01	81	none	NaN	NaN
115	2	84	72	kitchen	sun_abpwyqmlzafvklqo.tif	320463.988904	320464.247493	320464.937534	6.589524e-01	62	none	NaN	NaN
115	2	85	107	kitchen	sun_axyyrmzcupyhlivc.tif	320465.707275	320465.965862	320466.655931	7.423641e-01	97	39	320468.446278	1
115	2	86	104	kitchen	sun_auticobqsbwgoppi.tif	320469.219088	320469.477678	320470.167851	6.839759e-01	94	none	NaN	NaN
115	2	87	108	kitchen	sun_aymvwlarqodbwuoc.tif	320470.937457	320471.196043	320471.886094	7.256818e-01	98	none	NaN	NaN
115	2	88	93	kitchen	sun_ahspylgoovwmwvgk.tif	320472.655824	320472.914411	320473.604556	8.257758e-01	83	none	NaN	NaN
115	2	89	86	kitchen	sun_aggjlwcdjsjcaemh.tif	320474.374192	320474.632781	320475.322976	8.174347e-01	76	none	NaN	NaN
115	2	90	103	kitchen	sun_aunzlwrbjumxhwdj.tif	320476.092562	320476.351149	320477.041206	6.506113e-01	93	none	NaN	NaN
115	2	91	73	kitchen	sun_abrcnpqqhmjwekyf.tif	320477.810927	320478.069521	320478.759621	7.340230e-01	63	none	NaN	NaN
115	2	92	89	kitchen	sun_agzzivivdpnawacl.tif	320479.529300	320479.787887	320480.477975	7.673876e-01	79	none	NaN	NaN
115	2	93	71	kitchen	sun_abftihopvusyfakt.tif	320481.247664	320481.506252	320482.196373	6.756348e-01	61	none	NaN	NaN
115	2	94	85	kitchen	sun_afuyedyxivkhecmu.tif	320482.966035	320483.224619	320483.914807	8.507993e-01	75	none	NaN	NaN
115	2	95	64	kitchen	sun_aadbddgrdsjugojn.tif	320484.684401	320484.942992	320485.633184	6.672936e-01	54	none	NaN	NaN
115	2	96	110	kitchen	sun_azmutvzbxypaceni.tif	320486.402769	320486.661363	320487.351507	8.424582e-01	100	none	NaN	NaN
115	2	97	70	kitchen	sun_abdxkyyxwfskuaqb.tif	320488.121140	320488.379731	320489.069850	8.341170e-01	60	none	NaN	NaN
115	2	98	99	kitchen	sun_akcjzhbbjlbogpdi.tif	320489.839505	320490.098100	320490.788165	7.840700e-01	89	none	NaN	NaN
115	2	99	79	kitchen	sun_admlmbcdswaszruo.tif	320491.557875	320491.816459	320492.506644	8.090935e-01	69	none	NaN	NaN
115	2	100	69	kitchen	sun_abdenxonkemggwsq.tif	320493.276244	320493.534833	320494.225028	7.256818e-01	59	none	NaN	NaN
115	3	1	27	bathroom	sun_ahcvzmoyaycdoftf.tif	320500.917144	320501.175734	320501.990950	8.257758e-01	17	none	NaN	NaN
115	3	2	21	bathroom	sun_aggnnqpdorgxpvce.tif	320502.760636	320503.019227	320503.834349	6.923171e-01	11	39	320505.078195	1
115	3	3	19	bathroom	sun_aclfzgynxzxlbepz.tif	320505.855369	320506.113960	320506.929081	8.257758e-01	9	none	NaN	NaN
115	3	4	46	bathroom	sun_apmqjbnwghzuhhzh.tif	320507.698858	320507.957452	320508.772603	7.089995e-01	36	none	NaN	NaN
115	3	5	17	bathroom	sun_acegryoqftbzowsg.tif	320509.542353	320509.800943	320510.616263	8.424582e-01	7	none	NaN	NaN
115	3	6	34	bathroom	sun_alkosphxlxwjwgjd.tif	320511.385841	320511.644436	320512.459749	7.256818e-01	24	none	NaN	NaN
115	3	7	18	bathroom	sun_acgyywnybuveqsro.tif	320513.229336	320513.487925	320514.303216	7.089995e-01	8	none	NaN	NaN
115	3	8	38	bathroom	sun_anhioqovhscjqqwb.tif	320515.072829	320515.331422	320516.146560	6.756348e-01	28	none	NaN	NaN
115	3	9	50	bathroom	sun_aspsyogrekjtfozg.tif	320516.916321	320517.174903	320517.990210	8.424582e-01	40	none	NaN	NaN
115	3	10	29	bathroom	sun_ahqjwnzgolcaoidx.tif	320518.759815	320519.018406	320519.833581	7.089995e-01	19	37	320520.718100	1
115	3	11	53	bathroom	sun_ausgutylgojavyoq.tif	320521.495858	320521.754447	320522.569622	6.589524e-01	43	none	NaN	NaN
115	3	12	59	bathroom	sun_axyrejkiiaqiurjk.tif	320523.339349	320523.597942	320524.413190	7.840700e-01	49	none	NaN	NaN
115	3	13	24	bathroom	sun_agrwbmhcpmfuwmsg.tif	320525.182840	320525.441433	320526.256729	8.007523e-01	14	none	NaN	NaN
115	3	14	58	bathroom	sun_axxbkopsgyouuebh.tif	320527.026337	320527.284925	320528.100081	7.507053e-01	48	none	NaN	NaN
115	3	15	31	bathroom	sun_akiytfaagpdsphgz.tif	320528.869830	320529.128415	320529.943746	6.839759e-01	21	none	NaN	NaN
115	3	16	13	bathroom	sun_aavhrsfjbserjtht.tif	320530.713320	320530.971905	320531.787040	7.590465e-01	3	none	NaN	NaN
115	3	17	54	bathroom	sun_auzqhkafidnkrwmo.tif	320532.556811	320532.815404	320533.630595	8.341170e-01	44	37	320534.486306	1
115	3	18	37	bathroom	sun_amzlamotzwfkwjco.tif	320535.259490	320535.518080	320536.333235	7.340230e-01	27	none	NaN	NaN
115	3	19	49	bathroom	sun_asfwthctfqerjvxr.tif	320537.102979	320537.361574	320538.176742	7.173406e-01	39	none	NaN	NaN
115	3	20	45	bathroom	sun_apkxzenqapsujocq.tif	320538.946475	320539.205063	320540.020250	6.756348e-01	35	none	NaN	NaN
115	3	21	39	bathroom	sun_anryaplzeujmzfkd.tif	320540.789962	320541.048555	320541.863843	6.506113e-01	29	none	NaN	NaN
115	3	22	51	bathroom	sun_atstyziqcmkahyxk.tif	320542.633457	320542.892048	320543.707214	7.673876e-01	41	none	NaN	NaN
115	3	23	30	bathroom	sun_ajlawzvmubibwbpy.tif	320544.476950	320544.735539	320545.550722	6.923171e-01	20	none	NaN	NaN
115	3	24	33	bathroom	sun_aljolscmmzydegqp.tif	320546.320441	320546.579031	320547.394343	7.840700e-01	23	none	NaN	NaN
115	3	25	20	bathroom	sun_afcoljnjfoxjtgja.tif	320548.163934	320548.422522	320549.237737	6.756348e-01	10	none	NaN	NaN
115	3	26	60	bathroom	sun_azqyogdvyhahyram.tif	320550.007426	320550.266014	320551.081178	8.090935e-01	50	none	NaN	NaN
115	3	27	22	bathroom	sun_agguqiubmwhqqunb.tif	320551.850917	320552.109509	320552.924796	7.673876e-01	12	37	320553.861859	0
115	3	28	55	bathroom	sun_avhrdrntsqrjzccq.tif	320554.637010	320554.895603	320555.710865	7.173406e-01	45	none	NaN	NaN
115	3	29	52	bathroom	sun_aunuadmjocsddsrl.tif	320556.480504	320556.739092	320557.554383	7.006583e-01	42	none	NaN	NaN
115	3	30	14	bathroom	sun_abapwbhyhkfixyex.tif	320558.323997	320558.582589	320559.397722	7.924112e-01	4	none	NaN	NaN
115	3	31	35	bathroom	sun_alotolagknyrgtsk.tif	320560.167488	320560.426076	320561.241300	7.757288e-01	25	39	320562.614053	1
115	3	32	11	bathroom	labelme_sfxiulhjbhlyiyt.tif	320563.387339	320563.645934	320564.461160	7.340230e-01	1	none	NaN	NaN
115	3	33	48	bathroom	sun_aqrpegblszgcoujh.tif	320565.230838	320565.489426	320566.304532	8.257758e-01	38	none	NaN	NaN
115	3	34	28	bathroom	sun_ahijqszoswveeyji.tif	320567.074327	320567.332921	320568.148236	7.507053e-01	18	39	320569.230154	1
115	3	35	57	bathroom	sun_axldvoqbuvuggfmq.tif	320570.002229	320570.260817	320571.075925	7.924112e-01	47	none	NaN	NaN
115	3	36	26	bathroom	sun_ahaulkltgpkeeemi.tif	320571.845723	320572.104312	320572.919435	7.256818e-01	16	none	NaN	NaN
115	3	37	23	bathroom	sun_aghyqhbptboemmoq.tif	320573.689212	320573.947804	320574.763066	8.174347e-01	13	none	NaN	NaN
115	3	38	47	bathroom	sun_apynckhmoftszqoq.tif	320575.532704	320575.791296	320576.606487	7.423641e-01	37	none	NaN	NaN
115	3	39	42	bathroom	sun_apeeialkgkuxddgh.tif	320577.376197	320577.634788	320578.450016	7.673876e-01	32	39	320579.422081	1
115	3	40	25	bathroom	sun_agyqfjcfkdcydepw.tif	320580.195662	320580.454246	320581.269463	6.839759e-01	15	none	NaN	NaN
115	3	41	32	bathroom	sun_aleqenyvunhactkl.tif	320582.039148	320582.297742	320583.112886	7.507053e-01	22	39	320587.966004	1
115	3	42	12	bathroom	sun_aapitsgbtktqubfy.tif	320588.737452	320588.996035	320589.811334	8.007523e-01	2	none	NaN	NaN
115	3	43	36	bathroom	sun_ambriybtogmepttm.tif	320590.580944	320590.839529	320591.654735	7.006583e-01	26	none	NaN	NaN
115	3	44	44	bathroom	sun_apkruvsevgegsdwp.tif	320592.424434	320592.683025	320593.498420	8.507993e-01	34	none	NaN	NaN
115	3	45	56	bathroom	sun_awnqiikzaispgmwo.tif	320594.267926	320594.526515	320595.341629	6.756348e-01	46	none	NaN	NaN
115	3	46	15	bathroom	sun_abjtwfukuwddzted.tif	320596.103078	320596.361666	320597.176833	8.424582e-01	5	none	NaN	NaN
115	3	47	16	bathroom	sun_acduarbnmmoglmiv.tif	320597.946571	320598.205157	320599.020340	6.923171e-01	6	none	NaN	NaN
115	3	48	43	bathroom	sun_apjevzvycyhuqghb.tif	320599.790062	320600.048652	320600.863953	7.757288e-01	33	none	NaN	NaN
115	3	49	40	bathroom	sun_aofnryafpsjimzsb.tif	320601.633556	320601.892147	320602.707399	6.672936e-01	30	none	NaN	NaN
115	3	50	41	bathroom	sun_aoybiabnpadelefl.tif	320603.477047	320603.735635	320604.550751	6.672936e-01	31	none	NaN	NaN
115	3	51	27	bathroom	sun_ahcvzmoyaycdoftf.tif	320605.320539	320605.579127	320606.394457	8.341170e-01	17	37	320607.542310	1
115	3	52	36	bathroom	sun_ambriybtogmepttm.tif	320608.315176	320608.573780	320609.388950	8.341170e-01	26	none	NaN	NaN
115	3	53	37	bathroom	sun_amzlamotzwfkwjco.tif	320610.158664	320610.417244	320611.232389	8.090935e-01	27	none	NaN	NaN
115	3	54	14	bathroom	sun_abapwbhyhkfixyex.tif	320612.002153	320612.260748	320613.075889	8.007523e-01	4	none	NaN	NaN
115	3	55	40	bathroom	sun_aofnryafpsjimzsb.tif	320613.845653	320614.104237	320614.919373	7.173406e-01	30	none	NaN	NaN
115	3	56	41	bathroom	sun_aoybiabnpadelefl.tif	320615.689139	320615.947730	320616.763030	6.589524e-01	31	none	NaN	NaN
115	3	57	39	bathroom	sun_anryaplzeujmzfkd.tif	320617.532632	320617.791221	320618.606524	6.839759e-01	29	none	NaN	NaN
115	3	58	43	bathroom	sun_apjevzvycyhuqghb.tif	320619.376125	320619.634713	320620.449834	6.923171e-01	33	none	NaN	NaN
115	3	59	60	bathroom	sun_azqyogdvyhahyram.tif	320621.219621	320621.478205	320622.293387	7.006583e-01	50	39	320624.350177	1
115	3	60	38	bathroom	sun_anhioqovhscjqqwb.tif	320625.123482	320625.382066	320626.197316	7.256818e-01	28	none	NaN	NaN
115	3	61	12	bathroom	sun_aapitsgbtktqubfy.tif	320626.958636	320627.217225	320628.032438	7.423641e-01	2	none	NaN	NaN
115	3	62	11	bathroom	labelme_sfxiulhjbhlyiyt.tif	320628.802129	320629.060712	320629.875983	7.757288e-01	1	none	NaN	NaN
115	3	63	30	bathroom	sun_ajlawzvmubibwbpy.tif	320630.645619	320630.904212	320631.719342	8.174347e-01	20	none	NaN	NaN
115	3	64	28	bathroom	sun_ahijqszoswveeyji.tif	320632.480771	320632.739357	320633.554574	6.506113e-01	18	none	NaN	NaN
115	3	65	48	bathroom	sun_aqrpegblszgcoujh.tif	320634.324261	320634.582851	320635.398105	7.507053e-01	38	none	NaN	NaN
115	3	66	25	bathroom	sun_agyqfjcfkdcydepw.tif	320636.167755	320636.426338	320637.241618	7.423641e-01	15	none	NaN	NaN
115	3	67	23	bathroom	sun_aghyqhbptboemmoq.tif	320638.011245	320638.269835	320639.085154	6.923171e-01	13	none	NaN	NaN
115	3	68	16	bathroom	sun_acduarbnmmoglmiv.tif	320639.854737	320640.113327	320640.928556	7.340230e-01	6	none	NaN	NaN
115	3	69	58	bathroom	sun_axxbkopsgyouuebh.tif	320641.698232	320641.956819	320642.771981	8.257758e-01	48	none	NaN	NaN
115	3	70	21	bathroom	sun_aggnnqpdorgxpvce.tif	320643.541722	320643.800312	320644.615501	8.174347e-01	11	none	NaN	NaN
115	3	71	26	bathroom	sun_ahaulkltgpkeeemi.tif	320645.385216	320645.643809	320646.458998	8.090935e-01	16	none	NaN	NaN
115	3	72	34	bathroom	sun_alkosphxlxwjwgjd.tif	320647.228706	320647.487294	320648.302402	6.506113e-01	24	none	NaN	NaN
115	3	73	52	bathroom	sun_aunuadmjocsddsrl.tif	320649.063858	320649.322452	320650.137773	6.672936e-01	42	none	NaN	NaN
115	3	74	15	bathroom	sun_abjtwfukuwddzted.tif	320650.907350	320651.165942	320651.981144	7.590465e-01	5	none	NaN	NaN
115	3	75	13	bathroom	sun_aavhrsfjbserjtht.tif	320652.750845	320653.009436	320653.824635	7.673876e-01	3	none	NaN	NaN
115	3	76	46	bathroom	sun_apmqjbnwghzuhhzh.tif	320654.594334	320654.852923	320655.668155	8.424582e-01	36	none	NaN	NaN
115	3	77	59	bathroom	sun_axyrejkiiaqiurjk.tif	320656.437829	320656.696417	320657.511585	7.924112e-01	49	none	NaN	NaN
115	3	78	42	bathroom	sun_apeeialkgkuxddgh.tif	320658.281324	320658.539909	320659.355022	7.840700e-01	32	none	NaN	NaN
115	3	79	24	bathroom	sun_agrwbmhcpmfuwmsg.tif	320660.124814	320660.383402	320661.198633	8.007523e-01	14	none	NaN	NaN
115	3	80	35	bathroom	sun_alotolagknyrgtsk.tif	320661.968302	320662.226898	320663.042175	7.173406e-01	25	37	320663.990133	1
115	3	81	57	bathroom	sun_axldvoqbuvuggfmq.tif	320664.762739	320665.021328	320665.836644	8.257758e-01	47	none	NaN	NaN
115	3	82	32	bathroom	sun_aleqenyvunhactkl.tif	320666.606232	320666.864821	320667.680010	7.423641e-01	22	none	NaN	NaN
115	3	83	55	bathroom	sun_avhrdrntsqrjzccq.tif	320668.441380	320668.699975	320669.515108	7.924112e-01	45	37	320673.494024	1
115	3	84	22	bathroom	sun_agguqiubmwhqqunb.tif	320674.272154	320674.530744	320675.345907	6.589524e-01	12	none	NaN	NaN
115	3	85	45	bathroom	sun_apkxzenqapsujocq.tif	320676.115650	320676.374240	320677.189354	7.340230e-01	35	none	NaN	NaN
115	3	86	20	bathroom	sun_afcoljnjfoxjtgja.tif	320677.959141	320678.217733	320679.032976	7.840700e-01	10	37	320680.062148	1
115	3	87	19	bathroom	sun_aclfzgynxzxlbepz.tif	320680.836989	320681.095575	320681.910712	7.590465e-01	9	none	NaN	NaN
115	3	88	31	bathroom	sun_akiytfaagpdsphgz.tif	320682.680481	320682.939071	320683.754369	7.590465e-01	21	none	NaN	NaN
115	3	89	47	bathroom	sun_apynckhmoftszqoq.tif	320684.523977	320684.782568	320685.597869	8.507993e-01	37	none	NaN	NaN
115	3	90	17	bathroom	sun_acegryoqftbzowsg.tif	320686.367466	320686.626057	320687.441283	6.839759e-01	7	none	NaN	NaN
115	3	91	33	bathroom	sun_aljolscmmzydegqp.tif	320688.210958	320688.469546	320689.284702	7.256818e-01	23	none	NaN	NaN
115	3	92	51	bathroom	sun_atstyziqcmkahyxk.tif	320690.054451	320690.313039	320691.128314	6.672936e-01	41	37	320692.189944	1
115	3	93	54	bathroom	sun_auzqhkafidnkrwmo.tif	320692.965662	320693.224260	320694.039384	8.174347e-01	44	none	NaN	NaN
115	3	94	18	bathroom	sun_acgyywnybuveqsro.tif	320694.809161	320695.067751	320695.882932	7.006583e-01	8	none	NaN	NaN
115	3	95	50	bathroom	sun_aspsyogrekjtfozg.tif	320696.652655	320696.911238	320697.726564	7.089995e-01	40	none	NaN	NaN
115	3	96	53	bathroom	sun_ausgutylgojavyoq.tif	320698.496147	320698.754735	320699.569906	7.757288e-01	43	none	NaN	NaN
115	3	97	56	bathroom	sun_awnqiikzaispgmwo.tif	320700.339639	320700.598228	320701.413568	8.090935e-01	46	37	320702.486014	1
115	3	98	49	bathroom	sun_asfwthctfqerjvxr.tif	320703.259194	320703.517785	320704.332967	7.590465e-01	39	none	NaN	NaN
115	3	99	44	bathroom	sun_apkruvsevgegsdwp.tif	320705.102686	320705.361280	320706.176501	6.589524e-01	34	none	NaN	NaN
115	3	100	29	bathroom	sun_ahqjwnzgolcaoidx.tif	320706.946180	320707.204768	320708.019882	8.341170e-01	19	none	NaN	NaN
115	4	1	68	kitchen	sun_aaxxjlsuzvqlgylf.tif	320721.902660	320722.161255	320722.859696	7.256818e-01	58	none	NaN	NaN
115	4	2	77	kitchen	sun_acxkpeoqbwcxfvip.tif	320723.629370	320723.887957	320724.586425	7.006583e-01	67	none	NaN	NaN
115	4	3	79	kitchen	sun_admlmbcdswaszruo.tif	320725.356078	320725.614669	320726.313050	8.174347e-01	69	none	NaN	NaN
115	4	4	86	kitchen	sun_aggjlwcdjsjcaemh.tif	320727.082788	320727.341376	320728.039877	7.089995e-01	76	none	NaN	NaN
115	4	5	94	kitchen	sun_ahywdevtimnqcsln.tif	320728.809498	320729.068087	320729.766425	7.006583e-01	84	none	NaN	NaN
115	4	6	95	kitchen	sun_aixorpehvfykdynp.tif	320730.536206	320730.794798	320731.493177	6.756348e-01	85	none	NaN	NaN
115	4	7	75	kitchen	sun_acgtpgfybqjmzeyw.tif	320732.262918	320732.521511	320733.220052	7.507053e-01	65	none	NaN	NaN
115	4	8	88	kitchen	sun_agubuxuukhzyzpdp.tif	320733.989628	320734.248218	320734.946663	6.589524e-01	78	none	NaN	NaN
115	4	9	85	kitchen	sun_afuyedyxivkhecmu.tif	320735.716339	320735.974925	320736.673433	7.840700e-01	75	37	320738.133971	1
115	4	10	104	kitchen	sun_auticobqsbwgoppi.tif	320738.911167	320739.169758	320739.868535	7.590465e-01	94	39	320741.533992	1
115	4	11	72	kitchen	sun_abpwyqmlzafvklqo.tif	320742.306199	320742.564784	320743.263278	7.924112e-01	62	none	NaN	NaN
115	4	12	66	kitchen	sun_aapllqyqlykszopd.tif	320744.032909	320744.291497	320744.989838	7.256818e-01	56	none	NaN	NaN
115	4	13	69	kitchen	sun_abdenxonkemggwsq.tif	320745.759620	320746.018206	320746.716586	8.090935e-01	59	39	320748.877996	1
115	4	14	108	kitchen	sun_aymvwlarqodbwuoc.tif	320749.655141	320749.913722	320750.612228	6.756348e-01	98	none	NaN	NaN
115	4	15	105	kitchen	sun_avszsnwsbuqfgzbn.tif	320751.381853	320751.640441	320752.338779	7.507053e-01	95	none	NaN	NaN
115	4	16	78	kitchen	sun_adgqasybjyktddhj.tif	320753.108560	320753.367152	320754.065583	8.007523e-01	68	none	NaN	NaN
115	4	17	101	kitchen	sun_aqeaevwwwjoqhzvl.tif	320754.835272	320755.093857	320755.792358	8.507993e-01	91	39	320763.757999	1
115	4	18	99	kitchen	sun_akcjzhbbjlbogpdi.tif	320764.536545	320764.795133	320765.493721	6.839759e-01	89	none	NaN	NaN
115	4	19	90	kitchen	sun_ahdycvpopffkzzsu.tif	320766.263255	320766.521848	320767.220239	7.423641e-01	80	none	NaN	NaN
115	4	20	70	kitchen	sun_abdxkyyxwfskuaqb.tif	320767.989965	320768.248549	320768.946998	8.341170e-01	60	none	NaN	NaN
115	4	21	81	kitchen	sun_aehawpgmrlhlvcow.tif	320769.716674	320769.975262	320770.673645	8.007523e-01	71	39	320772.757825	1
115	4	22	106	kitchen	sun_awcpdzzznmweyyhv.tif	320773.528783	320773.787374	320774.485715	8.090935e-01	96	none	NaN	NaN
115	4	23	93	kitchen	sun_ahspylgoovwmwvgk.tif	320775.255493	320775.514084	320776.212423	6.506113e-01	83	none	NaN	NaN
115	4	24	97	kitchen	sun_ajkqhtgcbgpcwrwn.tif	320776.973860	320777.232453	320777.930914	7.173406e-01	87	none	NaN	NaN
115	4	25	91	kitchen	sun_ahljzhgcdpomplvg.tif	320778.700576	320778.959161	320779.657560	7.256818e-01	81	none	NaN	NaN
115	4	26	96	kitchen	sun_ajcbwwvdlsvjyzje.tif	320780.427285	320780.685867	320781.384354	8.090935e-01	86	none	NaN	NaN
115	4	27	62	kitchen	labelme_kxvouciolcpqplr.tif	320782.153991	320782.412582	320783.110973	7.757288e-01	52	none	NaN	NaN
115	4	28	109	kitchen	sun_aypmqwcualkenuoe.tif	320783.880704	320784.139295	320784.837798	7.757288e-01	99	37	320788.101824	1
115	4	29	76	kitchen	sun_acwjdupvyjsugpay.tif	320788.877314	320789.135906	320789.834453	8.090935e-01	66	none	NaN	NaN
115	4	30	87	kitchen	sun_agorklincwxrdtga.tif	320790.604026	320790.862617	320791.560990	8.424582e-01	77	none	NaN	NaN
115	4	31	102	kitchen	sun_auaiucuqpdausiva.tif	320792.330735	320792.589335	320793.287859	8.341170e-01	92	none	NaN	NaN
115	4	32	110	kitchen	sun_azmutvzbxypaceni.tif	320794.057445	320794.316035	320795.014547	7.673876e-01	100	39	320796.366137	1
115	4	33	98	kitchen	sun_akchetnepxlcxhsu.tif	320797.143834	320797.402419	320798.101098	6.672936e-01	88	none	NaN	NaN
115	4	34	100	kitchen	sun_amjjdeyrggfqgmom.tif	320798.870547	320799.129133	320799.827631	7.340230e-01	90	37	320801.606004	1
115	4	35	107	kitchen	sun_axyyrmzcupyhlivc.tif	320802.382359	320802.640949	320803.339374	7.673876e-01	97	none	NaN	NaN
115	4	36	65	kitchen	sun_aamedkxepzlwuxes.tif	320804.109065	320804.367659	320805.066180	8.174347e-01	55	none	NaN	NaN
115	4	37	64	kitchen	sun_aadbddgrdsjugojn.tif	320805.835778	320806.094363	320806.792716	7.340230e-01	54	37	320807.958134	1
115	4	38	89	kitchen	sun_agzzivivdpnawacl.tif	320808.730308	320808.988898	320809.687445	8.424582e-01	79	none	NaN	NaN
115	4	39	103	kitchen	sun_aunzlwrbjumxhwdj.tif	320810.457022	320810.715608	320811.414010	6.839759e-01	93	none	NaN	NaN
115	4	40	71	kitchen	sun_abftihopvusyfakt.tif	320812.183728	320812.442322	320813.140772	7.423641e-01	61	none	NaN	NaN
115	4	41	83	kitchen	sun_aeqdocilnnpuvuhx.tif	320813.910438	320814.169026	320814.867523	6.506113e-01	73	none	NaN	NaN
115	4	42	73	kitchen	sun_abrcnpqqhmjwekyf.tif	320815.637147	320815.895737	320816.594137	6.506113e-01	63	none	NaN	NaN
115	4	43	84	kitchen	sun_aexklacwqwezaorf.tif	320817.363864	320817.622448	320818.320834	7.173406e-01	74	none	NaN	NaN
115	4	44	92	kitchen	sun_ahpczsiumwwocjkv.tif	320819.090570	320819.349159	320820.047667	7.673876e-01	82	none	NaN	NaN
115	4	45	82	kitchen	sun_aenotlpyftoioydp.tif	320820.817282	320821.075874	320821.774366	8.257758e-01	72	39	320824.197996	1
115	4	46	80	kitchen	sun_aegoxogugdkwpmpj.tif	320824.971395	320825.229987	320825.928313	6.923171e-01	70	none	NaN	NaN
115	4	47	61	kitchen	labelme_brsyyvweiuaazfr.tif	320826.698105	320826.956688	320827.655172	7.089995e-01	51	none	NaN	NaN
115	4	48	63	kitchen	labelme_rykdqxenmhulbdn.tif	320828.424813	320828.683402	320829.381934	8.174347e-01	53	37	320830.501989	1
115	4	49	67	kitchen	sun_aarfiyshqohlwkmo.tif	320831.277641	320831.536228	320832.234582	7.006583e-01	57	none	NaN	NaN
115	4	50	74	kitchen	sun_acfmftudsenhrfhy.tif	320833.004351	320833.262939	320833.961481	7.423641e-01	64	none	NaN	NaN
115	4	51	91	kitchen	sun_ahljzhgcdpomplvg.tif	320834.731059	320834.989646	320835.688173	7.924112e-01	81	none	NaN	NaN
115	4	52	85	kitchen	sun_afuyedyxivkhecmu.tif	320836.457771	320836.716362	320837.414812	8.257758e-01	75	none	NaN	NaN
115	4	53	78	kitchen	sun_adgqasybjyktddhj.tif	320838.184480	320838.443069	320839.141440	6.756348e-01	68	none	NaN	NaN
115	4	54	92	kitchen	sun_ahpczsiumwwocjkv.tif	320839.911190	320840.169772	320840.868277	6.589524e-01	82	none	NaN	NaN
115	4	55	87	kitchen	sun_agorklincwxrdtga.tif	320841.637901	320841.896487	320842.594985	8.257758e-01	77	none	NaN	NaN
115	4	56	102	kitchen	sun_auaiucuqpdausiva.tif	320843.364612	320843.623197	320844.321703	7.256818e-01	92	none	NaN	NaN
115	4	57	66	kitchen	sun_aapllqyqlykszopd.tif	320845.091319	320845.349906	320846.048330	8.007523e-01	56	39	320851.405964	1
115	4	58	106	kitchen	sun_awcpdzzznmweyyhv.tif	320852.181669	320852.440262	320853.138775	7.089995e-01	96	none	NaN	NaN
115	4	59	64	kitchen	sun_aadbddgrdsjugojn.tif	320853.908386	320854.166972	320854.865357	7.089995e-01	54	none	NaN	NaN
115	4	60	80	kitchen	sun_aegoxogugdkwpmpj.tif	320855.635093	320855.893683	320856.592155	6.672936e-01	70	none	NaN	NaN
115	4	61	73	kitchen	sun_abrcnpqqhmjwekyf.tif	320857.361805	320857.620396	320858.318862	7.673876e-01	63	none	NaN	NaN
115	4	62	105	kitchen	sun_avszsnwsbuqfgzbn.tif	320859.088517	320859.347103	320860.045651	7.423641e-01	95	none	NaN	NaN
115	4	63	62	kitchen	labelme_kxvouciolcpqplr.tif	320860.815221	320861.073814	320861.772303	7.173406e-01	52	none	NaN	NaN
115	4	64	89	kitchen	sun_agzzivivdpnawacl.tif	320862.541929	320862.800522	320863.499054	6.672936e-01	79	none	NaN	NaN
115	4	65	103	kitchen	sun_aunzlwrbjumxhwdj.tif	320864.268643	320864.527234	320865.225661	8.257758e-01	93	37	320866.662010	1
115	4	66	108	kitchen	sun_aymvwlarqodbwuoc.tif	320867.438451	320867.697041	320868.395446	8.424582e-01	98	none	NaN	NaN
115	4	67	72	kitchen	sun_abpwyqmlzafvklqo.tif	320869.165161	320869.423749	320870.122210	7.590465e-01	62	none	NaN	NaN
115	4	68	70	kitchen	sun_abdxkyyxwfskuaqb.tif	320870.891868	320871.150463	320871.848928	6.923171e-01	60	none	NaN	NaN
115	4	69	68	kitchen	sun_aaxxjlsuzvqlgylf.tif	320872.618582	320872.877170	320873.575676	6.756348e-01	58	37	320874.902047	1
115	4	70	110	kitchen	sun_azmutvzbxypaceni.tif	320875.679944	320875.938533	320876.637072	7.507053e-01	100	none	NaN	NaN
115	4	71	107	kitchen	sun_axyyrmzcupyhlivc.tif	320877.406652	320877.665244	320878.363592	6.923171e-01	97	none	NaN	NaN
115	4	72	97	kitchen	sun_ajkqhtgcbgpcwrwn.tif	320879.133368	320879.391954	320880.090500	7.340230e-01	87	none	NaN	NaN
115	4	73	65	kitchen	sun_aamedkxepzlwuxes.tif	320880.860073	320881.118663	320881.817110	7.590465e-01	55	39	320883.110001	1
115	4	74	99	kitchen	sun_akcjzhbbjlbogpdi.tif	320883.888075	320884.146659	320884.845028	6.839759e-01	89	none	NaN	NaN
115	4	75	94	kitchen	sun_ahywdevtimnqcsln.tif	320885.614782	320885.873372	320886.571760	7.840700e-01	84	none	NaN	NaN
115	4	76	83	kitchen	sun_aeqdocilnnpuvuhx.tif	320887.341493	320887.600081	320888.298611	8.341170e-01	73	none	NaN	NaN
115	4	77	86	kitchen	sun_aggjlwcdjsjcaemh.tif	320889.068202	320889.326792	320890.025129	6.672936e-01	76	none	NaN	NaN
115	4	78	95	kitchen	sun_aixorpehvfykdynp.tif	320890.794913	320891.053504	320891.751863	7.590465e-01	85	none	NaN	NaN
115	4	79	74	kitchen	sun_acfmftudsenhrfhy.tif	320892.521624	320892.780216	320893.478622	7.590465e-01	64	none	NaN	NaN
115	4	80	77	kitchen	sun_acxkpeoqbwcxfvip.tif	320894.239994	320894.498575	320895.196917	7.757288e-01	67	none	NaN	NaN
115	4	81	79	kitchen	sun_admlmbcdswaszruo.tif	320895.966702	320896.225291	320896.923768	7.924112e-01	69	none	NaN	NaN
115	4	82	84	kitchen	sun_aexklacwqwezaorf.tif	320897.693410	320897.952001	320898.650468	8.507993e-01	74	none	NaN	NaN
115	4	83	88	kitchen	sun_agubuxuukhzyzpdp.tif	320899.420123	320899.678715	320900.377223	7.924112e-01	78	none	NaN	NaN
115	4	84	109	kitchen	sun_aypmqwcualkenuoe.tif	320901.146833	320901.405418	320902.103797	8.424582e-01	99	none	NaN	NaN
115	4	85	63	kitchen	labelme_rykdqxenmhulbdn.tif	320902.873539	320903.132130	320903.830533	6.589524e-01	53	none	NaN	NaN
115	4	86	101	kitchen	sun_aqeaevwwwjoqhzvl.tif	320904.600254	320904.858841	320905.557250	8.341170e-01	91	none	NaN	NaN
115	4	87	93	kitchen	sun_ahspylgoovwmwvgk.tif	320906.326962	320906.585552	320907.283938	7.840700e-01	83	none	NaN	NaN
115	4	88	81	kitchen	sun_aehawpgmrlhlvcow.tif	320908.053673	320908.312265	320909.010814	7.340230e-01	71	none	NaN	NaN
115	4	89	90	kitchen	sun_ahdycvpopffkzzsu.tif	320909.780385	320910.038970	320910.737307	8.257758e-01	80	none	NaN	NaN
115	4	90	98	kitchen	sun_akchetnepxlcxhsu.tif	320911.498748	320911.757337	320912.455676	7.757288e-01	88	none	NaN	NaN
115	4	91	69	kitchen	sun_abdenxonkemggwsq.tif	320913.217121	320913.475709	320914.174221	6.923171e-01	59	none	NaN	NaN
115	4	92	96	kitchen	sun_ajcbwwvdlsvjyzje.tif	320914.943829	320915.202421	320915.900889	6.839759e-01	86	none	NaN	NaN
115	4	93	75	kitchen	sun_acgtpgfybqjmzeyw.tif	320916.670540	320916.929127	320917.627642	8.174347e-01	65	none	NaN	NaN
115	4	94	76	kitchen	sun_acwjdupvyjsugpay.tif	320918.397251	320918.655839	320919.354246	7.173406e-01	66	none	NaN	NaN
115	4	95	104	kitchen	sun_auticobqsbwgoppi.tif	320920.123957	320920.382551	320921.081035	8.007523e-01	94	none	NaN	NaN
115	4	96	82	kitchen	sun_aenotlpyftoioydp.tif	320921.850668	320922.109258	320922.807586	7.840700e-01	72	none	NaN	NaN
115	4	97	61	kitchen	labelme_brsyyvweiuaazfr.tif	320923.569037	320923.827628	320924.526129	7.006583e-01	51	none	NaN	NaN
115	4	98	71	kitchen	sun_abftihopvusyfakt.tif	320925.295748	320925.554335	320926.252757	6.589524e-01	61	none	NaN	NaN
115	4	99	67	kitchen	sun_aarfiyshqohlwkmo.tif	320927.022458	320927.281043	320927.979455	6.923171e-01	57	none	NaN	NaN
115	4	100	100	kitchen	sun_amjjdeyrggfqgmom.tif	320928.749168	320929.007756	320929.706131	7.507053e-01	90	none	NaN	NaN
115	5	1	47	bathroom	sun_apynckhmoftszqoq.tif	320943.530469	320943.789063	320944.495773	7.590465e-01	37	none	NaN	NaN
115	5	2	55	bathroom	sun_avhrdrntsqrjzccq.tif	320945.265520	320945.524112	320946.230976	6.506113e-01	45	39	320948.941796	1
115	5	3	45	bathroom	sun_apkxzenqapsujocq.tif	320949.719936	320949.978522	320950.685386	7.423641e-01	35	none	NaN	NaN
115	5	4	41	bathroom	sun_aoybiabnpadelefl.tif	320951.454986	320951.713577	320952.420353	7.089995e-01	31	none	NaN	NaN
115	5	5	21	bathroom	sun_aggnnqpdorgxpvce.tif	320953.190040	320953.448628	320954.155416	7.173406e-01	11	none	NaN	NaN
115	5	6	36	bathroom	sun_ambriybtogmepttm.tif	320954.925088	320955.183679	320955.890430	8.507993e-01	26	none	NaN	NaN
115	5	7	24	bathroom	sun_agrwbmhcpmfuwmsg.tif	320956.660140	320956.918730	320957.625434	6.756348e-01	14	none	NaN	NaN
115	5	8	37	bathroom	sun_amzlamotzwfkwjco.tif	320958.395191	320958.653781	320959.360475	7.006583e-01	27	none	NaN	NaN
115	5	9	20	bathroom	sun_afcoljnjfoxjtgja.tif	320960.130245	320960.388837	320961.095609	7.256818e-01	10	none	NaN	NaN
115	5	10	40	bathroom	sun_aofnryafpsjimzsb.tif	320961.865294	320962.123884	320962.830718	7.507053e-01	30	none	NaN	NaN
115	5	11	42	bathroom	sun_apeeialkgkuxddgh.tif	320963.600344	320963.858935	320964.565701	8.090935e-01	32	none	NaN	NaN
115	5	12	13	bathroom	sun_aavhrsfjbserjtht.tif	320965.335399	320965.593983	320966.300714	8.174347e-01	3	none	NaN	NaN
115	5	13	11	bathroom	labelme_sfxiulhjbhlyiyt.tif	320967.070448	320967.329035	320968.035842	7.256818e-01	1	none	NaN	NaN
115	5	14	34	bathroom	sun_alkosphxlxwjwgjd.tif	320968.805502	320969.064090	320969.770898	6.589524e-01	24	37	320972.101954	1
115	5	15	51	bathroom	sun_atstyziqcmkahyxk.tif	320972.876199	320973.134789	320973.841633	7.256818e-01	41	39	320976.573917	1
115	5	16	32	bathroom	sun_aleqenyvunhactkl.tif	320977.347292	320977.605887	320978.312647	7.840700e-01	22	none	NaN	NaN
115	5	17	26	bathroom	sun_ahaulkltgpkeeemi.tif	320979.082346	320979.340933	320980.047672	7.924112e-01	16	none	NaN	NaN
115	5	18	33	bathroom	sun_aljolscmmzydegqp.tif	320980.817393	320981.075985	320981.782714	7.006583e-01	23	37	320983.614135	1
115	5	19	28	bathroom	sun_ahijqszoswveeyji.tif	320984.387599	320984.646187	320985.353008	7.006583e-01	18	none	NaN	NaN
115	5	20	19	bathroom	sun_aclfzgynxzxlbepz.tif	320986.122651	320986.381239	320987.088125	7.590465e-01	9	none	NaN	NaN
115	5	21	35	bathroom	sun_alotolagknyrgtsk.tif	320987.857699	320988.116295	320988.822994	7.173406e-01	25	none	NaN	NaN
115	5	22	58	bathroom	sun_axxbkopsgyouuebh.tif	320989.584412	320989.843002	320990.549772	8.507993e-01	48	none	NaN	NaN
115	5	23	27	bathroom	sun_ahcvzmoyaycdoftf.tif	320991.319464	320991.578056	320992.284741	7.173406e-01	17	none	NaN	NaN
115	5	24	23	bathroom	sun_aghyqhbptboemmoq.tif	320993.054512	320993.313110	320994.019839	8.090935e-01	13	none	NaN	NaN
115	5	25	56	bathroom	sun_awnqiikzaispgmwo.tif	320994.789566	320995.048152	320995.754991	8.174347e-01	46	none	NaN	NaN
115	5	26	15	bathroom	sun_abjtwfukuwddzted.tif	320996.524620	320996.783207	320997.489979	7.423641e-01	5	none	NaN	NaN
115	5	27	48	bathroom	sun_aqrpegblszgcoujh.tif	320998.259671	320998.518257	320999.225059	8.424582e-01	38	none	NaN	NaN
115	5	28	18	bathroom	sun_acgyywnybuveqsro.tif	320999.994718	321000.253308	321000.959992	8.174347e-01	8	none	NaN	NaN
115	5	29	60	bathroom	sun_azqyogdvyhahyram.tif	321001.729773	321001.988363	321002.695100	8.007523e-01	50	none	NaN	NaN
115	5	30	46	bathroom	sun_apmqjbnwghzuhhzh.tif	321003.464824	321003.723411	321004.430156	6.756348e-01	36	none	NaN	NaN
115	5	31	30	bathroom	sun_ajlawzvmubibwbpy.tif	321005.199876	321005.458464	321006.165252	6.589524e-01	20	none	NaN	NaN
115	5	32	31	bathroom	sun_akiytfaagpdsphgz.tif	321006.934925	321007.193517	321007.900437	8.424582e-01	21	none	NaN	NaN
115	5	33	16	bathroom	sun_acduarbnmmoglmiv.tif	321008.669983	321008.928568	321009.635430	6.672936e-01	6	none	NaN	NaN
115	5	34	29	bathroom	sun_ahqjwnzgolcaoidx.tif	321010.405030	321010.663614	321011.370299	7.089995e-01	19	39	321013.454094	1
115	5	35	49	bathroom	sun_asfwthctfqerjvxr.tif	321014.225483	321014.484073	321015.190799	7.673876e-01	39	none	NaN	NaN
115	5	36	43	bathroom	sun_apjevzvycyhuqghb.tif	321015.960533	321016.219121	321016.925938	8.007523e-01	33	none	NaN	NaN
115	5	37	22	bathroom	sun_agguqiubmwhqqunb.tif	321017.695584	321017.954171	321018.660941	7.006583e-01	12	none	NaN	NaN
115	5	38	17	bathroom	sun_acegryoqftbzowsg.tif	321019.430635	321019.689227	321020.395955	6.672936e-01	7	none	NaN	NaN
115	5	39	44	bathroom	sun_apkruvsevgegsdwp.tif	321021.165683	321021.424271	321022.130961	7.757288e-01	34	39	321023.581768	1
115	5	40	52	bathroom	sun_aunuadmjocsddsrl.tif	321024.352177	321024.610767	321025.317558	8.007523e-01	42	none	NaN	NaN
115	5	41	59	bathroom	sun_axyrejkiiaqiurjk.tif	321026.087227	321026.345815	321027.052689	8.007523e-01	49	none	NaN	NaN
115	5	42	53	bathroom	sun_ausgutylgojavyoq.tif	321027.822280	321028.080867	321028.787704	7.089995e-01	43	none	NaN	NaN
115	5	43	12	bathroom	sun_aapitsgbtktqubfy.tif	321029.557330	321029.815920	321030.522698	6.589524e-01	2	none	NaN	NaN
115	5	44	25	bathroom	sun_agyqfjcfkdcydepw.tif	321031.292381	321031.550967	321032.257639	7.673876e-01	15	none	NaN	NaN
115	5	45	14	bathroom	sun_abapwbhyhkfixyex.tif	321033.019094	321033.277683	321033.984466	7.590465e-01	4	none	NaN	NaN
115	5	46	54	bathroom	sun_auzqhkafidnkrwmo.tif	321034.754141	321035.012737	321035.719623	8.090935e-01	44	none	NaN	NaN
115	5	47	39	bathroom	sun_anryaplzeujmzfkd.tif	321036.489192	321036.747788	321037.454495	7.840700e-01	29	none	NaN	NaN
115	5	48	38	bathroom	sun_anhioqovhscjqqwb.tif	321038.224242	321038.482836	321039.189696	6.756348e-01	28	none	NaN	NaN
115	5	49	57	bathroom	sun_axldvoqbuvuggfmq.tif	321039.959297	321040.217884	321040.924667	7.757288e-01	47	none	NaN	NaN
115	5	50	50	bathroom	sun_aspsyogrekjtfozg.tif	321041.694350	321041.952942	321042.659643	8.090935e-01	40	none	NaN	NaN
115	5	51	50	bathroom	sun_aspsyogrekjtfozg.tif	321043.429405	321043.687989	321044.394803	7.673876e-01	40	none	NaN	NaN
115	5	52	58	bathroom	sun_axxbkopsgyouuebh.tif	321045.164456	321045.423046	321046.129786	8.257758e-01	48	none	NaN	NaN
115	5	53	13	bathroom	sun_aavhrsfjbserjtht.tif	321046.899508	321047.158098	321047.864844	8.257758e-01	3	none	NaN	NaN
115	5	54	28	bathroom	sun_ahijqszoswveeyji.tif	321048.634555	321048.893142	321049.600036	7.423641e-01	18	none	NaN	NaN
115	5	55	31	bathroom	sun_akiytfaagpdsphgz.tif	321050.369602	321050.628196	321051.334913	7.590465e-01	21	none	NaN	NaN
115	5	56	14	bathroom	sun_abapwbhyhkfixyex.tif	321052.104663	321052.363247	321053.069958	8.341170e-01	4	none	NaN	NaN
115	5	57	26	bathroom	sun_ahaulkltgpkeeemi.tif	321053.839709	321054.098296	321054.805080	7.340230e-01	16	none	NaN	NaN
115	5	58	45	bathroom	sun_apkxzenqapsujocq.tif	321055.574760	321055.833351	321056.540069	8.257758e-01	35	none	NaN	NaN
115	5	59	52	bathroom	sun_aunuadmjocsddsrl.tif	321057.309809	321057.568405	321058.275203	7.840700e-01	42	none	NaN	NaN
115	5	60	15	bathroom	sun_abjtwfukuwddzted.tif	321059.044866	321059.303450	321060.010143	8.424582e-01	5	none	NaN	NaN
115	5	61	42	bathroom	sun_apeeialkgkuxddgh.tif	321060.771595	321061.030165	321061.737063	8.341170e-01	32	none	NaN	NaN
115	5	62	32	bathroom	sun_aleqenyvunhactkl.tif	321062.506626	321062.765217	321063.471905	8.341170e-01	22	none	NaN	NaN
115	5	63	34	bathroom	sun_alkosphxlxwjwgjd.tif	321064.241677	321064.500271	321065.206993	7.757288e-01	24	none	NaN	NaN
115	5	64	16	bathroom	sun_acduarbnmmoglmiv.tif	321065.976728	321066.235319	321066.942068	8.257758e-01	6	none	NaN	NaN
115	5	65	44	bathroom	sun_apkruvsevgegsdwp.tif	321067.703438	321067.962029	321068.668848	7.590465e-01	34	none	NaN	NaN
115	5	66	36	bathroom	sun_ambriybtogmepttm.tif	321069.438492	321069.697077	321070.403885	7.507053e-01	26	none	NaN	NaN
115	5	67	27	bathroom	sun_ahcvzmoyaycdoftf.tif	321071.173540	321071.432132	321072.138864	6.839759e-01	17	none	NaN	NaN
115	5	68	33	bathroom	sun_aljolscmmzydegqp.tif	321072.908596	321073.167181	321073.873858	8.174347e-01	23	39	321077.253776	1
115	5	69	49	bathroom	sun_asfwthctfqerjvxr.tif	321078.030329	321078.288921	321078.995746	6.923171e-01	39	none	NaN	NaN
115	5	70	46	bathroom	sun_apmqjbnwghzuhhzh.tif	321079.765382	321080.023973	321080.730811	6.589524e-01	36	39	321082.013908	1
115	5	71	60	bathroom	sun_azqyogdvyhahyram.tif	321082.785043	321083.043628	321083.750470	6.923171e-01	50	37	321084.573964	1
115	5	72	56	bathroom	sun_awnqiikzaispgmwo.tif	321085.345909	321085.604500	321086.311184	8.341170e-01	46	none	NaN	NaN
115	5	73	53	bathroom	sun_ausgutylgojavyoq.tif	321087.080959	321087.339556	321088.046309	7.924112e-01	43	none	NaN	NaN
115	5	74	12	bathroom	sun_aapitsgbtktqubfy.tif	321088.816015	321089.074604	321089.781497	7.924112e-01	2	none	NaN	NaN
115	5	75	38	bathroom	sun_anhioqovhscjqqwb.tif	321090.551067	321090.809651	321091.516424	6.923171e-01	28	none	NaN	NaN
115	5	76	47	bathroom	sun_apynckhmoftszqoq.tif	321092.286116	321092.544701	321093.251433	6.923171e-01	37	none	NaN	NaN
115	5	77	55	bathroom	sun_avhrdrntsqrjzccq.tif	321094.021169	321094.279755	321094.986437	6.839759e-01	45	none	NaN	NaN
115	5	78	29	bathroom	sun_ahqjwnzgolcaoidx.tif	321095.747877	321096.006467	321096.713299	8.424582e-01	19	none	NaN	NaN
115	5	79	20	bathroom	sun_afcoljnjfoxjtgja.tif	321097.482930	321097.741517	321098.448222	7.840700e-01	10	37	321099.613967	1
115	5	80	59	bathroom	sun_axyrejkiiaqiurjk.tif	321100.385801	321100.644393	321101.351245	6.506113e-01	49	none	NaN	NaN
115	5	81	39	bathroom	sun_anryaplzeujmzfkd.tif	321102.120852	321102.379445	321103.086237	7.256818e-01	29	none	NaN	NaN
115	5	82	18	bathroom	sun_acgyywnybuveqsro.tif	321103.855903	321104.114501	321104.821263	7.340230e-01	8	none	NaN	NaN
115	5	83	21	bathroom	sun_aggnnqpdorgxpvce.tif	321105.590957	321105.849553	321106.556344	7.089995e-01	11	none	NaN	NaN
115	5	84	37	bathroom	sun_amzlamotzwfkwjco.tif	321107.326007	321107.584599	321108.291319	7.173406e-01	27	39	321110.718107	1
115	5	85	11	bathroom	labelme_sfxiulhjbhlyiyt.tif	321111.488465	321111.747055	321112.453833	7.340230e-01	1	37	321113.173769	1
115	5	86	35	bathroom	sun_alotolagknyrgtsk.tif	321113.949239	321114.207830	321114.914586	7.507053e-01	25	37	321115.806045	1
115	5	87	30	bathroom	sun_ajlawzvmubibwbpy.tif	321116.576838	321116.835428	321117.542144	7.673876e-01	20	none	NaN	NaN
115	5	88	57	bathroom	sun_axldvoqbuvuggfmq.tif	321118.311888	321118.570477	321119.277332	6.839759e-01	47	none	NaN	NaN
115	5	89	22	bathroom	sun_agguqiubmwhqqunb.tif	321120.046941	321120.305531	321121.012304	6.756348e-01	12	none	NaN	NaN
115	5	90	19	bathroom	sun_aclfzgynxzxlbepz.tif	321121.781991	321122.040580	321122.747383	7.340230e-01	9	none	NaN	NaN
115	5	91	25	bathroom	sun_agyqfjcfkdcydepw.tif	321123.517047	321123.775635	321124.482507	6.672936e-01	15	37	321125.357904	1
115	5	92	43	bathroom	sun_apjevzvycyhuqghb.tif	321126.136302	321126.394896	321127.101707	6.672936e-01	33	none	NaN	NaN
115	5	93	54	bathroom	sun_auzqhkafidnkrwmo.tif	321127.871355	321128.129947	321128.836774	7.757288e-01	44	none	NaN	NaN
115	5	94	51	bathroom	sun_atstyziqcmkahyxk.tif	321129.606410	321129.864995	321130.571800	7.423641e-01	41	none	NaN	NaN
115	5	95	24	bathroom	sun_agrwbmhcpmfuwmsg.tif	321131.341463	321131.600049	321132.306769	6.839759e-01	14	none	NaN	NaN
115	5	96	23	bathroom	sun_aghyqhbptboemmoq.tif	321133.076511	321133.335099	321134.041988	6.923171e-01	13	39	321134.925933	1
115	5	97	40	bathroom	sun_aofnryafpsjimzsb.tif	321135.704119	321135.962701	321136.669571	6.506113e-01	30	none	NaN	NaN
115	5	98	41	bathroom	sun_aoybiabnpadelefl.tif	321137.439167	321137.697754	321138.404626	7.507053e-01	31	none	NaN	NaN
115	5	99	48	bathroom	sun_aqrpegblszgcoujh.tif	321139.174218	321139.432808	321140.139568	7.924112e-01	38	none	NaN	NaN
115	5	100	17	bathroom	sun_acegryoqftbzowsg.tif	321140.909270	321141.167857	321141.874530	8.257758e-01	7	none	NaN	NaN
115	6	1	64	kitchen	sun_aadbddgrdsjugojn.tif	321153.246489	321153.505070	321154.245326	8.424582e-01	54	none	NaN	NaN
115	6	2	81	kitchen	sun_aehawpgmrlhlvcow.tif	321155.014905	321155.273491	321156.013643	7.089995e-01	71	none	NaN	NaN
115	6	3	108	kitchen	sun_aymvwlarqodbwuoc.tif	321156.783322	321157.041909	321157.782034	6.839759e-01	98	none	NaN	NaN
115	6	4	65	kitchen	sun_aamedkxepzlwuxes.tif	321158.551744	321158.810332	321159.550552	8.257758e-01	55	none	NaN	NaN
115	6	5	87	kitchen	sun_agorklincwxrdtga.tif	321160.320155	321160.578745	321161.318958	8.174347e-01	77	none	NaN	NaN
115	6	6	90	kitchen	sun_ahdycvpopffkzzsu.tif	321162.088574	321162.347166	321163.087252	7.507053e-01	80	none	NaN	NaN
115	6	7	99	kitchen	sun_akcjzhbbjlbogpdi.tif	321163.856990	321164.115583	321164.855914	7.673876e-01	89	39	321165.766034	1
115	6	8	93	kitchen	sun_ahspylgoovwmwvgk.tif	321166.542986	321166.801572	321167.541815	7.006583e-01	83	none	NaN	NaN
115	6	9	62	kitchen	labelme_kxvouciolcpqplr.tif	321168.311405	321168.569995	321169.310175	6.672936e-01	52	none	NaN	NaN
115	6	10	69	kitchen	sun_abdenxonkemggwsq.tif	321170.079823	321170.338411	321171.078651	6.839759e-01	59	none	NaN	NaN
115	6	11	98	kitchen	sun_akchetnepxlcxhsu.tif	321171.848240	321172.106830	321172.846878	7.840700e-01	88	none	NaN	NaN
115	6	12	106	kitchen	sun_awcpdzzznmweyyhv.tif	321173.616657	321173.875249	321174.615316	7.924112e-01	96	none	NaN	NaN
115	6	13	109	kitchen	sun_aypmqwcualkenuoe.tif	321175.385079	321175.643666	321176.383772	6.923171e-01	99	none	NaN	NaN
115	6	14	100	kitchen	sun_amjjdeyrggfqgmom.tif	321177.153496	321177.412085	321178.152243	7.173406e-01	90	none	NaN	NaN
115	6	15	89	kitchen	sun_agzzivivdpnawacl.tif	321178.921915	321179.180498	321179.920646	8.257758e-01	79	none	NaN	NaN
115	6	16	103	kitchen	sun_aunzlwrbjumxhwdj.tif	321180.690330	321180.948916	321181.689096	6.923171e-01	93	none	NaN	NaN
115	6	17	78	kitchen	sun_adgqasybjyktddhj.tif	321182.458750	321182.717336	321183.457593	8.341170e-01	68	none	NaN	NaN
115	6	18	68	kitchen	sun_aaxxjlsuzvqlgylf.tif	321184.227164	321184.485758	321185.225867	8.257758e-01	58	none	NaN	NaN
115	6	19	71	kitchen	sun_abftihopvusyfakt.tif	321185.995586	321186.254173	321186.994357	7.089995e-01	61	none	NaN	NaN
115	6	20	105	kitchen	sun_avszsnwsbuqfgzbn.tif	321187.764000	321188.022595	321188.762714	6.506113e-01	95	37	321189.790019	0
115	6	21	73	kitchen	sun_abrcnpqqhmjwekyf.tif	321190.566774	321190.825364	321191.565476	7.590465e-01	63	none	NaN	NaN
115	6	22	67	kitchen	sun_aarfiyshqohlwkmo.tif	321192.335195	321192.593786	321193.333974	7.757288e-01	57	none	NaN	NaN
115	6	23	86	kitchen	sun_aggjlwcdjsjcaemh.tif	321194.103613	321194.362202	321195.102349	8.007523e-01	76	none	NaN	NaN
115	6	24	74	kitchen	sun_acfmftudsenhrfhy.tif	321195.872029	321196.130622	321196.870660	6.589524e-01	64	none	NaN	NaN
115	6	25	66	kitchen	sun_aapllqyqlykszopd.tif	321197.632107	321197.890699	321198.630913	7.173406e-01	56	none	NaN	NaN
115	6	26	95	kitchen	sun_aixorpehvfykdynp.tif	321199.400525	321199.659113	321200.399178	7.590465e-01	85	none	NaN	NaN
115	6	27	70	kitchen	sun_abdxkyyxwfskuaqb.tif	321201.168943	321201.427533	321202.167598	8.341170e-01	60	39	321203.405885	1
115	6	28	75	kitchen	sun_acgtpgfybqjmzeyw.tif	321204.180260	321204.438848	321205.178961	8.424582e-01	65	none	NaN	NaN
115	6	29	94	kitchen	sun_ahywdevtimnqcsln.tif	321205.948677	321206.207267	321206.947365	7.423641e-01	84	none	NaN	NaN
115	6	30	85	kitchen	sun_afuyedyxivkhecmu.tif	321207.717098	321207.975685	321208.715900	7.840700e-01	75	none	NaN	NaN
115	6	31	107	kitchen	sun_axyyrmzcupyhlivc.tif	321209.485513	321209.744104	321210.484200	8.174347e-01	97	none	NaN	NaN
115	6	32	91	kitchen	sun_ahljzhgcdpomplvg.tif	321211.253933	321211.512518	321212.252725	7.256818e-01	81	none	NaN	NaN
115	6	33	96	kitchen	sun_ajcbwwvdlsvjyzje.tif	321213.022348	321213.280939	321214.021167	7.757288e-01	86	39	321215.557748	1
115	6	34	82	kitchen	sun_aenotlpyftoioydp.tif	321216.333959	321216.592548	321217.332661	7.590465e-01	72	37	321218.133728	1
115	6	35	102	kitchen	sun_auaiucuqpdausiva.tif	321218.911518	321219.170104	321219.910264	8.007523e-01	92	37	321221.085963	1
115	6	36	72	kitchen	sun_abpwyqmlzafvklqo.tif	321221.864435	321222.123026	321222.863163	7.256818e-01	62	none	NaN	NaN
115	6	37	84	kitchen	sun_aexklacwqwezaorf.tif	321223.632858	321223.891452	321224.631646	7.673876e-01	74	39	321225.486022	1
115	6	38	101	kitchen	sun_aqeaevwwwjoqhzvl.tif	321226.260460	321226.519049	321227.259087	7.673876e-01	91	none	NaN	NaN
115	6	39	110	kitchen	sun_azmutvzbxypaceni.tif	321228.020537	321228.279126	321229.019296	6.589524e-01	100	none	NaN	NaN
115	6	40	83	kitchen	sun_aeqdocilnnpuvuhx.tif	321229.788951	321230.047544	321230.787579	8.007523e-01	73	none	NaN	NaN
115	6	41	77	kitchen	sun_acxkpeoqbwcxfvip.tif	321231.549031	321231.807621	321232.547845	8.257758e-01	67	none	NaN	NaN
115	6	42	63	kitchen	labelme_rykdqxenmhulbdn.tif	321233.317450	321233.576037	321234.316155	6.506113e-01	53	none	NaN	NaN
115	6	43	80	kitchen	sun_aegoxogugdkwpmpj.tif	321235.085866	321235.344454	321236.084679	7.089995e-01	70	none	NaN	NaN
115	6	44	79	kitchen	sun_admlmbcdswaszruo.tif	321236.854280	321237.112876	321237.852924	7.924112e-01	69	37	321238.805905	1
115	6	45	61	kitchen	labelme_brsyyvweiuaazfr.tif	321239.581980	321239.840574	321240.580660	7.006583e-01	51	none	NaN	NaN
115	6	46	97	kitchen	sun_ajkqhtgcbgpcwrwn.tif	321241.350401	321241.608991	321242.349070	7.089995e-01	87	none	NaN	NaN
115	6	47	88	kitchen	sun_agubuxuukhzyzpdp.tif	321243.118821	321243.377407	321244.117556	7.340230e-01	78	none	NaN	NaN
115	6	48	104	kitchen	sun_auticobqsbwgoppi.tif	321244.887241	321245.145829	321245.886035	7.757288e-01	94	none	NaN	NaN
115	6	49	76	kitchen	sun_acwjdupvyjsugpay.tif	321246.655658	321246.914247	321247.654457	7.590465e-01	66	none	NaN	NaN
115	6	50	92	kitchen	sun_ahpczsiumwwocjkv.tif	321248.424078	321248.682664	321249.422905	7.173406e-01	82	none	NaN	NaN
115	6	51	105	kitchen	sun_avszsnwsbuqfgzbn.tif	321250.192491	321250.451083	321251.191262	8.257758e-01	95	none	NaN	NaN
115	6	52	92	kitchen	sun_ahpczsiumwwocjkv.tif	321251.960914	321252.219502	321252.959753	8.341170e-01	82	none	NaN	NaN
115	6	53	83	kitchen	sun_aeqdocilnnpuvuhx.tif	321253.729326	321253.987920	321254.727996	7.340230e-01	73	none	NaN	NaN
115	6	54	94	kitchen	sun_ahywdevtimnqcsln.tif	321255.497749	321255.756335	321256.496488	8.090935e-01	84	none	NaN	NaN
115	6	55	101	kitchen	sun_aqeaevwwwjoqhzvl.tif	321257.266162	321257.524754	321258.265003	7.006583e-01	91	none	NaN	NaN
115	6	56	81	kitchen	sun_aehawpgmrlhlvcow.tif	321259.034583	321259.293171	321260.033343	6.839759e-01	71	none	NaN	NaN
115	6	57	87	kitchen	sun_agorklincwxrdtga.tif	321260.803002	321261.061588	321261.801732	8.090935e-01	77	none	NaN	NaN
115	6	58	89	kitchen	sun_agzzivivdpnawacl.tif	321262.571417	321262.830007	321263.570251	7.256818e-01	79	none	NaN	NaN
115	6	59	74	kitchen	sun_acfmftudsenhrfhy.tif	321264.339834	321264.598426	321265.338482	8.007523e-01	64	none	NaN	NaN
115	6	60	67	kitchen	sun_aarfiyshqohlwkmo.tif	321266.099915	321266.358501	321267.098599	6.923171e-01	57	none	NaN	NaN
115	6	61	63	kitchen	labelme_rykdqxenmhulbdn.tif	321267.868331	321268.126918	321268.867259	6.672936e-01	53	none	NaN	NaN
115	6	62	84	kitchen	sun_aexklacwqwezaorf.tif	321269.636746	321269.895340	321270.635555	6.589524e-01	74	none	NaN	NaN
115	6	63	103	kitchen	sun_aunzlwrbjumxhwdj.tif	321271.405168	321271.663755	321272.403836	6.923171e-01	93	37	321273.678067	1
115	6	64	91	kitchen	sun_ahljzhgcdpomplvg.tif	321274.449847	321274.708443	321275.448507	6.923171e-01	81	none	NaN	NaN
115	6	65	62	kitchen	labelme_kxvouciolcpqplr.tif	321276.218261	321276.476857	321277.217092	7.423641e-01	52	37	321278.158026	0
115	6	66	106	kitchen	sun_awcpdzzznmweyyhv.tif	321278.929288	321279.187873	321279.928110	6.672936e-01	96	none	NaN	NaN
115	6	67	68	kitchen	sun_aaxxjlsuzvqlgylf.tif	321280.697701	321280.956293	321281.696325	7.507053e-01	58	none	NaN	NaN
115	6	68	65	kitchen	sun_aamedkxepzlwuxes.tif	321282.457778	321282.716367	321283.456533	7.340230e-01	55	none	NaN	NaN
115	6	69	96	kitchen	sun_ajcbwwvdlsvjyzje.tif	321284.226194	321284.484784	321285.224823	7.006583e-01	86	none	NaN	NaN
115	6	70	110	kitchen	sun_azmutvzbxypaceni.tif	321285.986272	321286.244864	321286.985047	8.424582e-01	100	none	NaN	NaN
115	6	71	77	kitchen	sun_acxkpeoqbwcxfvip.tif	321287.754690	321288.013280	321288.753515	8.507993e-01	67	39	321290.029879	1
115	6	72	86	kitchen	sun_aggjlwcdjsjcaemh.tif	321290.807715	321291.066300	321291.806557	7.924112e-01	76	none	NaN	NaN
115	6	73	64	kitchen	sun_aadbddgrdsjugojn.tif	321292.576130	321292.834717	321293.574764	6.756348e-01	54	none	NaN	NaN
115	6	74	76	kitchen	sun_acwjdupvyjsugpay.tif	321294.344552	321294.603140	321295.343296	8.174347e-01	66	none	NaN	NaN
115	6	75	104	kitchen	sun_auticobqsbwgoppi.tif	321296.112965	321296.371559	321297.111803	8.507993e-01	94	none	NaN	NaN
115	6	76	95	kitchen	sun_aixorpehvfykdynp.tif	321297.881383	321298.139975	321298.880186	7.507053e-01	85	none	NaN	NaN
115	6	77	109	kitchen	sun_aypmqwcualkenuoe.tif	321299.649803	321299.908396	321300.648444	8.341170e-01	99	none	NaN	NaN
115	6	78	108	kitchen	sun_aymvwlarqodbwuoc.tif	321301.418221	321301.676808	321302.416965	6.756348e-01	98	37	321303.325850	1
115	6	79	100	kitchen	sun_amjjdeyrggfqgmom.tif	321304.104213	321304.362804	321305.102861	7.590465e-01	90	none	NaN	NaN
115	6	80	99	kitchen	sun_akcjzhbbjlbogpdi.tif	321305.872631	321306.131221	321306.871308	6.589524e-01	89	none	NaN	NaN
115	6	81	70	kitchen	sun_abdxkyyxwfskuaqb.tif	321307.641052	321307.899640	321308.639781	7.173406e-01	60	none	NaN	NaN
115	6	82	75	kitchen	sun_acgtpgfybqjmzeyw.tif	321309.409467	321309.668053	321310.408277	6.672936e-01	65	37	321311.317724	1
115	6	83	90	kitchen	sun_ahdycvpopffkzzsu.tif	321312.095460	321312.354051	321313.094265	6.756348e-01	80	none	NaN	NaN
115	6	84	97	kitchen	sun_ajkqhtgcbgpcwrwn.tif	321313.863877	321314.122466	321314.862719	6.839759e-01	87	none	NaN	NaN
115	6	85	88	kitchen	sun_agubuxuukhzyzpdp.tif	321315.632299	321315.890885	321316.631053	6.506113e-01	78	none	NaN	NaN
115	6	86	80	kitchen	sun_aegoxogugdkwpmpj.tif	321317.400713	321317.659302	321318.399391	8.090935e-01	70	none	NaN	NaN
115	6	87	82	kitchen	sun_aenotlpyftoioydp.tif	321319.169133	321319.427724	321320.167773	7.256818e-01	72	none	NaN	NaN
115	6	88	102	kitchen	sun_auaiucuqpdausiva.tif	321320.929213	321321.187800	321321.928001	7.924112e-01	92	39	321323.533838	1
115	6	89	66	kitchen	sun_aapllqyqlykszopd.tif	321324.307556	321324.566145	321325.306388	7.840700e-01	56	none	NaN	NaN
115	6	90	78	kitchen	sun_adgqasybjyktddhj.tif	321326.075975	321326.334565	321327.074816	8.090935e-01	68	none	NaN	NaN
115	6	91	61	kitchen	labelme_brsyyvweiuaazfr.tif	321327.844390	321328.102982	321328.843213	8.174347e-01	51	none	NaN	NaN
115	6	92	79	kitchen	sun_admlmbcdswaszruo.tif	321329.612807	321329.871401	321330.611539	8.424582e-01	69	37	321331.470107	1
115	6	93	73	kitchen	sun_abrcnpqqhmjwekyf.tif	321332.240411	321332.499000	321333.239050	7.673876e-01	63	none	NaN	NaN
115	6	94	69	kitchen	sun_abdenxonkemggwsq.tif	321334.000491	321334.259075	321334.999263	6.756348e-01	59	none	NaN	NaN
115	6	95	98	kitchen	sun_akchetnepxlcxhsu.tif	321335.768906	321336.027485	321336.767642	7.757288e-01	88	none	NaN	NaN
115	6	96	107	kitchen	sun_axyyrmzcupyhlivc.tif	321337.537326	321337.795912	321338.536029	7.840700e-01	97	none	NaN	NaN
115	6	97	71	kitchen	sun_abftihopvusyfakt.tif	321339.305741	321339.564332	321340.304460	7.507053e-01	61	none	NaN	NaN
115	6	98	85	kitchen	sun_afuyedyxivkhecmu.tif	321341.074156	321341.332754	321342.072876	7.340230e-01	75	none	NaN	NaN
115	6	99	93	kitchen	sun_ahspylgoovwmwvgk.tif	321342.842580	321343.101165	321343.841243	7.423641e-01	83	none	NaN	NaN
115	6	100	72	kitchen	sun_abpwyqmlzafvklqo.tif	321344.610993	321344.869586	321345.609701	7.423641e-01	62	none	NaN	NaN
115	7	1	30	bathroom	sun_ajlawzvmubibwbpy.tif	321357.356951	321357.615539	321358.305625	6.672936e-01	20	37	321359.165936	1
115	7	2	24	bathroom	sun_agrwbmhcpmfuwmsg.tif	321359.942841	321360.201433	321360.891607	7.423641e-01	14	none	NaN	NaN
115	7	3	18	bathroom	sun_acgyywnybuveqsro.tif	321361.661214	321361.919799	321362.609866	7.673876e-01	8	none	NaN	NaN
115	7	4	11	bathroom	labelme_sfxiulhjbhlyiyt.tif	321363.379579	321363.638168	321364.328239	7.507053e-01	1	none	NaN	NaN
115	7	5	36	bathroom	sun_ambriybtogmepttm.tif	321365.097950	321365.356538	321366.046691	7.840700e-01	26	none	NaN	NaN
115	7	6	59	bathroom	sun_axyrejkiiaqiurjk.tif	321366.816317	321367.074909	321367.764906	8.007523e-01	49	39	321370.910003	1
115	7	7	41	bathroom	sun_aoybiabnpadelefl.tif	321371.687808	321371.946401	321372.636428	7.006583e-01	31	none	NaN	NaN
115	7	8	27	bathroom	sun_ahcvzmoyaycdoftf.tif	321373.406180	321373.664767	321374.354815	7.340230e-01	17	none	NaN	NaN
115	7	9	33	bathroom	sun_aljolscmmzydegqp.tif	321375.124546	321375.383137	321376.073154	7.423641e-01	23	none	NaN	NaN
115	7	10	19	bathroom	sun_aclfzgynxzxlbepz.tif	321376.842915	321377.101507	321377.791516	6.756348e-01	9	none	NaN	NaN
115	7	11	50	bathroom	sun_aspsyogrekjtfozg.tif	321378.561282	321378.819887	321379.509859	7.507053e-01	40	none	NaN	NaN
115	7	12	25	bathroom	sun_agyqfjcfkdcydepw.tif	321380.279652	321380.538237	321381.228420	6.506113e-01	15	37	321383.437979	1
115	7	13	48	bathroom	sun_aqrpegblszgcoujh.tif	321384.208544	321384.467128	321385.157225	8.007523e-01	38	none	NaN	NaN
115	7	14	52	bathroom	sun_aunuadmjocsddsrl.tif	321385.926910	321386.185497	321386.875507	8.341170e-01	42	none	NaN	NaN
115	7	15	45	bathroom	sun_apkxzenqapsujocq.tif	321387.636937	321387.895526	321388.585532	7.924112e-01	35	none	NaN	NaN
115	7	16	54	bathroom	sun_auzqhkafidnkrwmo.tif	321389.355305	321389.613899	321390.303976	6.839759e-01	44	none	NaN	NaN
115	7	17	43	bathroom	sun_apjevzvycyhuqghb.tif	321391.073675	321391.332265	321392.022431	6.923171e-01	33	37	321392.989932	1
115	7	18	23	bathroom	sun_aghyqhbptboemmoq.tif	321393.768007	321394.026597	321394.716677	7.590465e-01	13	none	NaN	NaN
115	7	19	57	bathroom	sun_axldvoqbuvuggfmq.tif	321395.486375	321395.744968	321396.435059	7.507053e-01	47	none	NaN	NaN
115	7	20	13	bathroom	sun_aavhrsfjbserjtht.tif	321397.204748	321397.463339	321398.153352	8.174347e-01	3	none	NaN	NaN
115	7	21	28	bathroom	sun_ahijqszoswveeyji.tif	321398.923115	321399.181711	321399.871868	7.340230e-01	18	39	321401.869907	1
115	7	22	51	bathroom	sun_atstyziqcmkahyxk.tif	321402.643465	321402.902056	321403.592041	7.256818e-01	41	none	NaN	NaN
115	7	23	55	bathroom	sun_avhrdrntsqrjzccq.tif	321404.353490	321404.612086	321405.302254	7.089995e-01	45	none	NaN	NaN
115	7	24	40	bathroom	sun_aofnryafpsjimzsb.tif	321406.071858	321406.330451	321407.020526	6.923171e-01	30	none	NaN	NaN
115	7	25	44	bathroom	sun_apkruvsevgegsdwp.tif	321407.790230	321408.048820	321408.738842	8.090935e-01	34	none	NaN	NaN
115	7	26	42	bathroom	sun_apeeialkgkuxddgh.tif	321409.508598	321409.767193	321410.457197	8.174347e-01	32	none	NaN	NaN
115	7	27	20	bathroom	sun_afcoljnjfoxjtgja.tif	321411.226962	321411.485554	321412.175696	7.173406e-01	10	none	NaN	NaN
115	7	28	17	bathroom	sun_acegryoqftbzowsg.tif	321412.945331	321413.203924	321413.894083	8.257758e-01	7	none	NaN	NaN
115	7	29	37	bathroom	sun_amzlamotzwfkwjco.tif	321414.663703	321414.922291	321415.612386	6.923171e-01	27	none	NaN	NaN
115	7	30	16	bathroom	sun_acduarbnmmoglmiv.tif	321416.382070	321416.640665	321417.330687	6.839759e-01	6	none	NaN	NaN
115	7	31	34	bathroom	sun_alkosphxlxwjwgjd.tif	321418.100441	321418.359027	321419.049124	8.341170e-01	24	none	NaN	NaN
115	7	32	49	bathroom	sun_asfwthctfqerjvxr.tif	321419.818807	321420.077397	321420.767531	7.673876e-01	39	none	NaN	NaN
115	7	33	31	bathroom	sun_akiytfaagpdsphgz.tif	321421.537173	321421.795767	321422.485796	7.924112e-01	21	none	NaN	NaN
115	7	34	53	bathroom	sun_ausgutylgojavyoq.tif	321423.255539	321423.514134	321424.204137	7.089995e-01	43	39	321425.997685	1
115	7	35	39	bathroom	sun_anryaplzeujmzfkd.tif	321426.775701	321427.034291	321427.724492	8.424582e-01	29	none	NaN	NaN
115	7	36	21	bathroom	sun_aggnnqpdorgxpvce.tif	321428.494065	321428.752655	321429.442861	7.924112e-01	11	39	321430.309998	1
115	7	37	56	bathroom	sun_awnqiikzaispgmwo.tif	321431.088303	321431.346890	321432.037022	7.340230e-01	46	none	NaN	NaN
115	7	38	14	bathroom	sun_abapwbhyhkfixyex.tif	321432.806670	321433.065259	321433.755393	8.174347e-01	4	none	NaN	NaN
115	7	39	60	bathroom	sun_azqyogdvyhahyram.tif	321434.524991	321434.783626	321435.473708	7.590465e-01	50	none	NaN	NaN
115	7	40	38	bathroom	sun_anhioqovhscjqqwb.tif	321436.243404	321436.501999	321437.192105	8.257758e-01	28	none	NaN	NaN
115	7	41	47	bathroom	sun_apynckhmoftszqoq.tif	321437.961776	321438.220366	321438.910452	6.506113e-01	37	none	NaN	NaN
115	7	42	12	bathroom	sun_aapitsgbtktqubfy.tif	321439.680140	321439.938734	321440.628908	8.007523e-01	2	none	NaN	NaN
115	7	43	22	bathroom	sun_agguqiubmwhqqunb.tif	321441.398510	321441.657101	321442.347279	7.423641e-01	12	37	321443.173876	1
115	7	44	46	bathroom	sun_apmqjbnwghzuhhzh.tif	321443.951038	321444.209633	321444.899821	8.341170e-01	36	none	NaN	NaN
115	7	45	58	bathroom	sun_axxbkopsgyouuebh.tif	321445.669408	321445.927997	321446.618133	8.257758e-01	48	none	NaN	NaN
115	7	46	35	bathroom	sun_alotolagknyrgtsk.tif	321447.387775	321447.646370	321448.336402	8.424582e-01	25	none	NaN	NaN
115	7	47	26	bathroom	sun_ahaulkltgpkeeemi.tif	321449.106144	321449.364734	321450.054931	8.090935e-01	16	none	NaN	NaN
115	7	48	29	bathroom	sun_ahqjwnzgolcaoidx.tif	321450.824513	321451.083107	321451.773312	6.672936e-01	19	none	NaN	NaN
115	7	49	32	bathroom	sun_aleqenyvunhactkl.tif	321452.542883	321452.801466	321453.491680	7.590465e-01	22	none	NaN	NaN
115	7	50	15	bathroom	sun_abjtwfukuwddzted.tif	321454.261248	321454.519838	321455.209854	6.589524e-01	5	none	NaN	NaN
115	7	51	16	bathroom	sun_acduarbnmmoglmiv.tif	321455.979617	321456.238209	321456.928246	7.173406e-01	6	none	NaN	NaN
115	7	52	53	bathroom	sun_ausgutylgojavyoq.tif	321457.697987	321457.956580	321458.646671	8.341170e-01	43	none	NaN	NaN
115	7	53	23	bathroom	sun_aghyqhbptboemmoq.tif	321459.416357	321459.674949	321460.364933	7.757288e-01	13	none	NaN	NaN
115	7	54	17	bathroom	sun_acegryoqftbzowsg.tif	321461.126383	321461.384975	321462.075086	6.672936e-01	7	none	NaN	NaN
115	7	55	32	bathroom	sun_aleqenyvunhactkl.tif	321462.844749	321463.103339	321463.793426	8.424582e-01	22	37	321464.653822	1
115	7	56	37	bathroom	sun_amzlamotzwfkwjco.tif	321465.430645	321465.689233	321466.379384	8.090935e-01	27	none	NaN	NaN
115	7	57	59	bathroom	sun_axyrejkiiaqiurjk.tif	321467.149016	321467.407606	321468.097799	7.507053e-01	49	37	321471.877932	0
115	7	58	41	bathroom	sun_aoybiabnpadelefl.tif	321472.654464	321472.913054	321473.603137	7.006583e-01	31	none	NaN	NaN
115	7	59	26	bathroom	sun_ahaulkltgpkeeemi.tif	321474.364493	321474.623080	321475.313187	8.090935e-01	16	none	NaN	NaN
115	7	60	55	bathroom	sun_avhrdrntsqrjzccq.tif	321476.082861	321476.341449	321477.031601	6.756348e-01	45	none	NaN	NaN
115	7	61	40	bathroom	sun_aofnryafpsjimzsb.tif	321477.801225	321478.059820	321478.750004	7.340230e-01	30	none	NaN	NaN
115	7	62	33	bathroom	sun_aljolscmmzydegqp.tif	321479.519598	321479.778185	321480.468391	6.923171e-01	23	none	NaN	NaN
115	7	63	24	bathroom	sun_agrwbmhcpmfuwmsg.tif	321481.237966	321481.496553	321482.186635	7.590465e-01	14	none	NaN	NaN
115	7	64	39	bathroom	sun_anryaplzeujmzfkd.tif	321482.956333	321483.214938	321483.905117	8.507993e-01	29	none	NaN	NaN
115	7	65	38	bathroom	sun_anhioqovhscjqqwb.tif	321484.674705	321484.933287	321485.623435	6.589524e-01	28	none	NaN	NaN
115	7	66	15	bathroom	sun_abjtwfukuwddzted.tif	321486.393071	321486.651662	321487.341788	6.756348e-01	5	none	NaN	NaN
115	7	67	42	bathroom	sun_apeeialkgkuxddgh.tif	321488.111440	321488.370029	321489.060120	7.840700e-01	32	none	NaN	NaN
115	7	68	11	bathroom	labelme_sfxiulhjbhlyiyt.tif	321489.829803	321490.088394	321490.778516	8.507993e-01	1	none	NaN	NaN
115	7	69	12	bathroom	sun_aapitsgbtktqubfy.tif	321491.548179	321491.806765	321492.496777	6.839759e-01	2	none	NaN	NaN
115	7	70	43	bathroom	sun_apjevzvycyhuqghb.tif	321493.266545	321493.525132	321494.215334	7.256818e-01	33	none	NaN	NaN
115	7	71	47	bathroom	sun_apynckhmoftszqoq.tif	321494.984906	321495.243502	321495.933551	8.007523e-01	37	37	321498.085964	1
115	7	72	34	bathroom	sun_alkosphxlxwjwgjd.tif	321498.863752	321499.122338	321499.812491	7.590465e-01	24	none	NaN	NaN
115	7	73	30	bathroom	sun_ajlawzvmubibwbpy.tif	321500.582124	321500.840714	321501.530904	7.173406e-01	20	none	NaN	NaN
115	7	74	56	bathroom	sun_awnqiikzaispgmwo.tif	321502.300490	321502.559080	321503.249066	6.589524e-01	46	none	NaN	NaN
115	7	75	36	bathroom	sun_ambriybtogmepttm.tif	321504.010517	321504.269110	321504.959177	8.174347e-01	26	none	NaN	NaN
115	7	76	46	bathroom	sun_apmqjbnwghzuhhzh.tif	321505.728885	321505.987477	321506.677518	6.672936e-01	36	none	NaN	NaN
115	7	77	14	bathroom	sun_abapwbhyhkfixyex.tif	321507.447257	321507.705845	321508.396041	7.757288e-01	4	none	NaN	NaN
115	7	78	19	bathroom	sun_aclfzgynxzxlbepz.tif	321509.165622	321509.424212	321510.114198	6.923171e-01	9	none	NaN	NaN
115	7	79	25	bathroom	sun_agyqfjcfkdcydepw.tif	321510.883992	321511.142582	321511.832644	7.006583e-01	15	none	NaN	NaN
115	7	80	13	bathroom	sun_aavhrsfjbserjtht.tif	321512.602362	321512.860950	321513.551061	7.256818e-01	3	none	NaN	NaN
115	7	81	60	bathroom	sun_azqyogdvyhahyram.tif	321514.320724	321514.579317	321515.269528	7.423641e-01	50	none	NaN	NaN
115	7	82	50	bathroom	sun_aspsyogrekjtfozg.tif	321516.039098	321516.297685	321516.987867	6.506113e-01	40	39	321518.237950	1
115	7	83	22	bathroom	sun_agguqiubmwhqqunb.tif	321519.008705	321519.267291	321519.957295	6.589524e-01	12	none	NaN	NaN
115	7	84	20	bathroom	sun_afcoljnjfoxjtgja.tif	321520.727071	321520.985661	321521.675745	8.257758e-01	10	none	NaN	NaN
115	7	85	18	bathroom	sun_acgyywnybuveqsro.tif	321522.445441	321522.704031	321523.394079	6.756348e-01	8	none	NaN	NaN
115	7	86	58	bathroom	sun_axxbkopsgyouuebh.tif	321524.163806	321524.422399	321525.112520	7.757288e-01	48	none	NaN	NaN
115	7	87	35	bathroom	sun_alotolagknyrgtsk.tif	321525.873835	321526.132426	321526.822582	7.256818e-01	25	none	NaN	NaN
115	7	88	44	bathroom	sun_apkruvsevgegsdwp.tif	321527.592205	321527.850793	321528.540914	7.006583e-01	34	none	NaN	NaN
115	7	89	48	bathroom	sun_aqrpegblszgcoujh.tif	321529.310570	321529.569163	321530.259242	7.840700e-01	38	none	NaN	NaN
115	7	90	45	bathroom	sun_apkxzenqapsujocq.tif	321531.028938	321531.287530	321531.977662	7.840700e-01	35	none	NaN	NaN
115	7	91	57	bathroom	sun_axldvoqbuvuggfmq.tif	321532.747309	321533.005895	321533.695959	7.089995e-01	47	39	321534.637854	1
115	7	92	51	bathroom	sun_atstyziqcmkahyxk.tif	321535.408275	321535.666861	321536.357057	7.173406e-01	41	none	NaN	NaN
115	7	93	31	bathroom	sun_akiytfaagpdsphgz.tif	321537.126645	321537.385236	321538.075262	7.924112e-01	21	none	NaN	NaN
115	7	94	29	bathroom	sun_ahqjwnzgolcaoidx.tif	321538.845012	321539.103601	321539.793794	8.257758e-01	19	none	NaN	NaN
115	7	95	54	bathroom	sun_auzqhkafidnkrwmo.tif	321540.563383	321540.821972	321541.512094	8.424582e-01	44	37	321542.789861	1
115	7	96	49	bathroom	sun_asfwthctfqerjvxr.tif	321543.566357	321543.824942	321544.515042	7.757288e-01	39	none	NaN	NaN
115	7	97	52	bathroom	sun_aunuadmjocsddsrl.tif	321545.284726	321545.543312	321546.233445	7.673876e-01	42	none	NaN	NaN
115	7	98	28	bathroom	sun_ahijqszoswveeyji.tif	321547.003094	321547.261684	321547.951846	6.839759e-01	18	none	NaN	NaN
115	7	99	21	bathroom	sun_aggnnqpdorgxpvce.tif	321548.721461	321548.980049	321549.670223	7.089995e-01	11	39	321553.197968	0
115	7	100	27	bathroom	sun_ahcvzmoyaycdoftf.tif	321553.968323	321554.226914	321554.916940	7.673876e-01	17	none	NaN	NaN
115	8	1	66	kitchen	sun_aapllqyqlykszopd.tif	321564.245167	321564.503757	321565.185549	6.756348e-01	56	none	NaN	NaN
115	8	2	91	kitchen	sun_ahljzhgcdpomplvg.tif	321565.955196	321566.213787	321566.895571	7.590465e-01	81	37	321567.669969	1
115	8	3	104	kitchen	sun_auticobqsbwgoppi.tif	321568.440990	321568.699580	321569.381397	8.507993e-01	94	none	NaN	NaN
115	8	4	109	kitchen	sun_aypmqwcualkenuoe.tif	321570.151017	321570.409606	321571.091338	7.757288e-01	99	none	NaN	NaN
115	8	5	81	kitchen	sun_aehawpgmrlhlvcow.tif	321571.861044	321572.119630	321572.801343	7.089995e-01	71	37	321573.461826	1
115	8	6	101	kitchen	sun_aqeaevwwwjoqhzvl.tif	321574.238402	321574.496986	321575.178835	7.256818e-01	91	none	NaN	NaN
115	8	7	85	kitchen	sun_afuyedyxivkhecmu.tif	321575.948421	321576.207015	321576.888670	8.257758e-01	75	none	NaN	NaN
115	8	8	83	kitchen	sun_aeqdocilnnpuvuhx.tif	321577.650107	321577.908698	321578.590405	6.923171e-01	73	none	NaN	NaN
115	8	9	80	kitchen	sun_aegoxogugdkwpmpj.tif	321579.360138	321579.618723	321580.300667	8.090935e-01	70	none	NaN	NaN
115	8	10	86	kitchen	sun_aggjlwcdjsjcaemh.tif	321581.070166	321581.328755	321582.010438	6.672936e-01	76	39	321584.101854	1
115	8	11	65	kitchen	sun_aamedkxepzlwuxes.tif	321584.873932	321585.132515	321585.814209	7.006583e-01	55	none	NaN	NaN
115	8	12	98	kitchen	sun_akchetnepxlcxhsu.tif	321586.583959	321586.842548	321587.524216	7.006583e-01	88	none	NaN	NaN
115	8	13	77	kitchen	sun_acxkpeoqbwcxfvip.tif	321588.293987	321588.552575	321589.234299	8.007523e-01	67	none	NaN	NaN
115	8	14	96	kitchen	sun_ajcbwwvdlsvjyzje.tif	321590.004012	321590.262601	321590.944318	8.257758e-01	86	none	NaN	NaN
115	8	15	84	kitchen	sun_aexklacwqwezaorf.tif	321591.714036	321591.972626	321592.654404	7.256818e-01	74	39	321593.597816	1
115	8	16	79	kitchen	sun_admlmbcdswaszruo.tif	321594.375006	321594.633594	321595.315254	7.507053e-01	69	none	NaN	NaN
115	8	17	89	kitchen	sun_agzzivivdpnawacl.tif	321596.085032	321596.343623	321597.025449	8.424582e-01	79	37	321597.829921	1
115	8	18	92	kitchen	sun_ahpczsiumwwocjkv.tif	321598.604193	321598.862778	321599.544604	8.424582e-01	82	none	NaN	NaN
115	8	19	93	kitchen	sun_ahspylgoovwmwvgk.tif	321600.314221	321600.572810	321601.254646	7.757288e-01	83	39	321602.358032	1
115	8	20	87	kitchen	sun_agorklincwxrdtga.tif	321603.133678	321603.392272	321604.074060	7.840700e-01	77	37	321604.934013	1
115	8	21	68	kitchen	sun_aaxxjlsuzvqlgylf.tif	321605.711233	321605.969824	321606.651516	6.839759e-01	58	none	NaN	NaN
115	8	22	76	kitchen	sun_acwjdupvyjsugpay.tif	321607.421260	321607.679849	321608.361602	6.589524e-01	66	none	NaN	NaN
115	8	23	67	kitchen	sun_aarfiyshqohlwkmo.tif	321609.131286	321609.389877	321610.071627	6.589524e-01	57	none	NaN	NaN
115	8	24	97	kitchen	sun_ajkqhtgcbgpcwrwn.tif	321610.841313	321611.099906	321611.781619	7.507053e-01	87	none	NaN	NaN
115	8	25	110	kitchen	sun_azmutvzbxypaceni.tif	321612.542999	321612.801588	321613.483433	7.173406e-01	100	none	NaN	NaN
115	8	26	105	kitchen	sun_avszsnwsbuqfgzbn.tif	321614.253024	321614.511612	321615.193277	7.840700e-01	95	none	NaN	NaN
115	8	27	70	kitchen	sun_abdxkyyxwfskuaqb.tif	321615.954711	321616.213298	321616.895128	8.507993e-01	60	none	NaN	NaN
115	8	28	69	kitchen	sun_abdenxonkemggwsq.tif	321617.664740	321617.923325	321618.605190	7.507053e-01	59	none	NaN	NaN
115	8	29	64	kitchen	sun_aadbddgrdsjugojn.tif	321619.374768	321619.633351	321620.315088	8.424582e-01	54	none	NaN	NaN
115	8	30	72	kitchen	sun_abpwyqmlzafvklqo.tif	321621.084788	321621.343379	321622.025172	7.673876e-01	62	none	NaN	NaN
115	8	31	71	kitchen	sun_abftihopvusyfakt.tif	321622.794820	321623.053408	321623.735273	7.590465e-01	61	none	NaN	NaN
115	8	32	108	kitchen	sun_aymvwlarqodbwuoc.tif	321624.504847	321624.763437	321625.445155	8.341170e-01	98	none	NaN	NaN
115	8	33	102	kitchen	sun_auaiucuqpdausiva.tif	321626.214873	321626.473462	321627.155209	7.340230e-01	92	none	NaN	NaN
115	8	34	75	kitchen	sun_acgtpgfybqjmzeyw.tif	321627.924902	321628.183484	321628.865192	7.924112e-01	65	none	NaN	NaN
115	8	35	100	kitchen	sun_amjjdeyrggfqgmom.tif	321629.634928	321629.893513	321630.575283	8.257758e-01	90	none	NaN	NaN
115	8	36	74	kitchen	sun_acfmftudsenhrfhy.tif	321631.344952	321631.603543	321632.285409	7.673876e-01	64	none	NaN	NaN
115	8	37	73	kitchen	sun_abrcnpqqhmjwekyf.tif	321633.054980	321633.313570	321633.995401	8.007523e-01	63	none	NaN	NaN
115	8	38	94	kitchen	sun_ahywdevtimnqcsln.tif	321634.765010	321635.023596	321635.705322	8.174347e-01	84	none	NaN	NaN
115	8	39	106	kitchen	sun_awcpdzzznmweyyhv.tif	321636.475032	321636.733620	321637.415379	6.923171e-01	96	none	NaN	NaN
115	8	40	103	kitchen	sun_aunzlwrbjumxhwdj.tif	321638.185058	321638.443647	321639.125513	7.173406e-01	93	none	NaN	NaN
115	8	41	99	kitchen	sun_akcjzhbbjlbogpdi.tif	321639.895086	321640.153677	321640.835514	7.423641e-01	89	none	NaN	NaN
115	8	42	63	kitchen	labelme_rykdqxenmhulbdn.tif	321641.605111	321641.863701	321642.545496	8.257758e-01	53	none	NaN	NaN
115	8	43	61	kitchen	labelme_brsyyvweiuaazfr.tif	321643.315137	321643.573732	321644.255521	7.507053e-01	51	none	NaN	NaN
115	8	44	88	kitchen	sun_agubuxuukhzyzpdp.tif	321645.025167	321645.283757	321645.965620	7.590465e-01	78	none	NaN	NaN
115	8	45	95	kitchen	sun_aixorpehvfykdynp.tif	321646.735191	321646.993780	321647.675581	7.089995e-01	85	none	NaN	NaN
115	8	46	62	kitchen	labelme_kxvouciolcpqplr.tif	321648.445224	321648.703810	321649.385539	7.840700e-01	52	none	NaN	NaN
115	8	47	78	kitchen	sun_adgqasybjyktddhj.tif	321650.155246	321650.413832	321651.095573	8.424582e-01	68	none	NaN	NaN
115	8	48	82	kitchen	sun_aenotlpyftoioydp.tif	321651.865267	321652.123863	321652.805677	6.756348e-01	72	37	321653.637961	1
115	8	49	90	kitchen	sun_ahdycvpopffkzzsu.tif	321654.409459	321654.668050	321655.349917	7.423641e-01	80	none	NaN	NaN
115	8	50	107	kitchen	sun_axyyrmzcupyhlivc.tif	321656.119488	321656.378072	321657.059801	6.839759e-01	97	none	NaN	NaN
115	8	51	109	kitchen	sun_aypmqwcualkenuoe.tif	321657.829513	321658.088101	321658.769941	7.757288e-01	99	none	NaN	NaN
115	8	52	75	kitchen	sun_acgtpgfybqjmzeyw.tif	321659.539545	321659.798128	321660.479946	7.173406e-01	65	none	NaN	NaN
115	8	53	76	kitchen	sun_acwjdupvyjsugpay.tif	321661.249565	321661.508154	321662.189962	6.756348e-01	66	none	NaN	NaN
115	8	54	66	kitchen	sun_aapllqyqlykszopd.tif	321662.959593	321663.218182	321663.899893	6.506113e-01	56	none	NaN	NaN
115	8	55	107	kitchen	sun_axyyrmzcupyhlivc.tif	321664.669621	321664.928206	321665.609981	7.006583e-01	97	37	321666.429864	1
115	8	56	64	kitchen	sun_aadbddgrdsjugojn.tif	321667.205460	321667.464051	321668.145874	8.257758e-01	54	37	321668.989650	1
115	8	57	101	kitchen	sun_aqeaevwwwjoqhzvl.tif	321669.766331	321670.024920	321670.706601	6.923171e-01	91	none	NaN	NaN
115	8	58	79	kitchen	sun_admlmbcdswaszruo.tif	321671.476359	321671.734954	321672.416614	7.256818e-01	69	none	NaN	NaN
115	8	59	61	kitchen	labelme_brsyyvweiuaazfr.tif	321673.186387	321673.444980	321674.126830	7.590465e-01	51	none	NaN	NaN
115	8	60	92	kitchen	sun_ahpczsiumwwocjkv.tif	321674.896417	321675.155000	321675.836736	7.590465e-01	82	none	NaN	NaN
115	8	61	63	kitchen	labelme_rykdqxenmhulbdn.tif	321676.606445	321676.865028	321677.546733	7.340230e-01	53	none	NaN	NaN
115	8	62	93	kitchen	sun_ahspylgoovwmwvgk.tif	321678.316468	321678.575059	321679.256911	7.256818e-01	83	none	NaN	NaN
115	8	63	106	kitchen	sun_awcpdzzznmweyyhv.tif	321680.026497	321680.285087	321680.966906	6.923171e-01	96	none	NaN	NaN
115	8	64	83	kitchen	sun_aeqdocilnnpuvuhx.tif	321681.736521	321681.995112	321682.676913	6.839759e-01	73	none	NaN	NaN
115	8	65	70	kitchen	sun_abdxkyyxwfskuaqb.tif	321683.446553	321683.705139	321684.386862	7.006583e-01	60	none	NaN	NaN
115	8	66	84	kitchen	sun_aexklacwqwezaorf.tif	321685.156572	321685.415168	321686.096934	7.757288e-01	74	none	NaN	NaN
115	8	67	78	kitchen	sun_adgqasybjyktddhj.tif	321686.866606	321687.125192	321687.806891	7.924112e-01	68	none	NaN	NaN
115	8	68	77	kitchen	sun_acxkpeoqbwcxfvip.tif	321688.576630	321688.835222	321689.516996	7.840700e-01	67	none	NaN	NaN
115	8	69	74	kitchen	sun_acfmftudsenhrfhy.tif	321690.286660	321690.545243	321691.227028	8.090935e-01	64	none	NaN	NaN
115	8	70	94	kitchen	sun_ahywdevtimnqcsln.tif	321691.996681	321692.255270	321692.936936	7.089995e-01	84	39	321694.709831	1
115	8	71	95	kitchen	sun_aixorpehvfykdynp.tif	321695.483471	321695.742059	321696.423778	6.672936e-01	85	39	321697.141915	1
115	8	72	73	kitchen	sun_abrcnpqqhmjwekyf.tif	321697.919209	321698.177805	321698.859661	8.007523e-01	63	37	321699.749824	1
115	8	73	88	kitchen	sun_agubuxuukhzyzpdp.tif	321700.521793	321700.780379	321701.462049	8.174347e-01	78	none	NaN	NaN
115	8	74	98	kitchen	sun_akchetnepxlcxhsu.tif	321702.231818	321702.490412	321703.172161	8.007523e-01	88	none	NaN	NaN
115	8	75	80	kitchen	sun_aegoxogugdkwpmpj.tif	321703.941849	321704.200434	321704.882178	6.672936e-01	70	39	321705.845915	1
115	8	76	65	kitchen	sun_aamedkxepzlwuxes.tif	321706.619495	321706.878088	321707.559882	7.673876e-01	55	none	NaN	NaN
115	8	77	103	kitchen	sun_aunzlwrbjumxhwdj.tif	321708.329522	321708.588112	321709.269790	7.423641e-01	93	none	NaN	NaN
115	8	78	86	kitchen	sun_aggjlwcdjsjcaemh.tif	321710.039547	321710.298139	321710.979788	8.090935e-01	76	none	NaN	NaN
115	8	79	71	kitchen	sun_abftihopvusyfakt.tif	321711.741234	321711.999820	321712.681480	7.423641e-01	61	none	NaN	NaN
115	8	80	81	kitchen	sun_aehawpgmrlhlvcow.tif	321713.442919	321713.701511	321714.383167	8.341170e-01	71	none	NaN	NaN
115	8	81	96	kitchen	sun_ajcbwwvdlsvjyzje.tif	321715.144609	321715.403198	321716.085057	6.589524e-01	86	none	NaN	NaN
115	8	82	102	kitchen	sun_auaiucuqpdausiva.tif	321716.854636	321717.113225	321717.794889	6.923171e-01	92	none	NaN	NaN
115	8	83	62	kitchen	labelme_kxvouciolcpqplr.tif	321718.556319	321718.814910	321719.496681	7.340230e-01	52	none	NaN	NaN
115	8	84	108	kitchen	sun_aymvwlarqodbwuoc.tif	321720.266348	321720.524928	321721.206598	6.589524e-01	98	none	NaN	NaN
115	8	85	72	kitchen	sun_abpwyqmlzafvklqo.tif	321721.976369	321722.234959	321722.916623	8.174347e-01	62	none	NaN	NaN
115	8	86	87	kitchen	sun_agorklincwxrdtga.tif	321723.678055	321723.936647	321724.618339	7.340230e-01	77	none	NaN	NaN
115	8	87	90	kitchen	sun_ahdycvpopffkzzsu.tif	321725.388084	321725.646674	321726.328518	7.924112e-01	80	none	NaN	NaN
115	8	88	82	kitchen	sun_aenotlpyftoioydp.tif	321727.098106	321727.356701	321728.038357	6.839759e-01	72	none	NaN	NaN
115	8	89	100	kitchen	sun_amjjdeyrggfqgmom.tif	321728.799799	321729.058381	321729.740038	7.173406e-01	90	39	321731.669716	1
115	8	90	67	kitchen	sun_aarfiyshqohlwkmo.tif	321732.445074	321732.703659	321733.385411	7.089995e-01	57	none	NaN	NaN
115	8	91	104	kitchen	sun_auticobqsbwgoppi.tif	321734.155101	321734.413685	321735.095411	8.090935e-01	94	none	NaN	NaN
115	8	92	110	kitchen	sun_azmutvzbxypaceni.tif	321735.865125	321736.123715	321736.805511	7.673876e-01	100	none	NaN	NaN
115	8	93	105	kitchen	sun_avszsnwsbuqfgzbn.tif	321737.575157	321737.833742	321738.515480	8.174347e-01	95	none	NaN	NaN
115	8	94	97	kitchen	sun_ajkqhtgcbgpcwrwn.tif	321739.285182	321739.543769	321740.225472	8.341170e-01	87	none	NaN	NaN
115	8	95	85	kitchen	sun_afuyedyxivkhecmu.tif	321740.995207	321741.253798	321741.935515	8.341170e-01	75	none	NaN	NaN
115	8	96	89	kitchen	sun_agzzivivdpnawacl.tif	321742.705235	321742.963824	321743.645604	7.924112e-01	79	none	NaN	NaN
115	8	97	91	kitchen	sun_ahljzhgcdpomplvg.tif	321744.415258	321744.673848	321745.355540	6.672936e-01	81	none	NaN	NaN
115	8	98	99	kitchen	sun_akcjzhbbjlbogpdi.tif	321746.125286	321746.383878	321747.065565	6.506113e-01	89	none	NaN	NaN
115	8	99	68	kitchen	sun_aaxxjlsuzvqlgylf.tif	321747.826975	321748.085564	321748.767239	6.756348e-01	58	none	NaN	NaN
115	8	100	69	kitchen	sun_abdenxonkemggwsq.tif	321749.537002	321749.795590	321750.477271	6.506113e-01	59	none	NaN	NaN
115	9	1	11	bathroom	labelme_sfxiulhjbhlyiyt.tif	321758.504211	321758.762805	321759.411084	7.757288e-01	1	none	NaN	NaN
115	9	2	24	bathroom	sun_agrwbmhcpmfuwmsg.tif	321760.172530	321760.431122	321761.079567	8.507993e-01	14	none	NaN	NaN
115	9	3	60	bathroom	sun_azqyogdvyhahyram.tif	321761.849190	321762.107783	321762.756166	7.006583e-01	50	none	NaN	NaN
115	9	4	19	bathroom	sun_aclfzgynxzxlbepz.tif	321763.525851	321763.784445	321764.432803	7.924112e-01	9	none	NaN	NaN
115	9	5	14	bathroom	sun_abapwbhyhkfixyex.tif	321765.202542	321765.461106	321766.109463	8.174347e-01	4	none	NaN	NaN
115	9	6	15	bathroom	sun_abjtwfukuwddzted.tif	321766.879175	321767.137765	321767.786240	6.923171e-01	5	39	321768.717834	1
115	9	7	21	bathroom	sun_aggnnqpdorgxpvce.tif	321769.490097	321769.748677	321770.397003	7.507053e-01	11	none	NaN	NaN
115	9	8	38	bathroom	sun_anhioqovhscjqqwb.tif	321771.166753	321771.425341	321772.073736	6.506113e-01	28	none	NaN	NaN
115	9	9	44	bathroom	sun_apkruvsevgegsdwp.tif	321772.843412	321773.102003	321773.750324	6.589524e-01	34	none	NaN	NaN
115	9	10	56	bathroom	sun_awnqiikzaispgmwo.tif	321774.520072	321774.778662	321775.427160	6.589524e-01	46	none	NaN	NaN
115	9	11	16	bathroom	sun_acduarbnmmoglmiv.tif	321776.196734	321776.455325	321777.103619	8.257758e-01	6	none	NaN	NaN
115	9	12	45	bathroom	sun_apkxzenqapsujocq.tif	321777.865053	321778.123644	321778.772102	8.007523e-01	35	none	NaN	NaN
115	9	13	18	bathroom	sun_acgyywnybuveqsro.tif	321779.541714	321779.800302	321780.448756	8.424582e-01	8	none	NaN	NaN
115	9	14	20	bathroom	sun_afcoljnjfoxjtgja.tif	321781.218371	321781.476963	321782.125378	7.757288e-01	10	37	321783.637928	1
115	9	15	49	bathroom	sun_asfwthctfqerjvxr.tif	321784.413204	321784.671792	321785.320223	8.090935e-01	39	none	NaN	NaN
115	9	16	31	bathroom	sun_akiytfaagpdsphgz.tif	321786.089866	321786.348454	321786.996868	7.590465e-01	21	none	NaN	NaN
115	9	17	17	bathroom	sun_acegryoqftbzowsg.tif	321787.766521	321788.025115	321788.673552	7.423641e-01	7	none	NaN	NaN
115	9	18	54	bathroom	sun_auzqhkafidnkrwmo.tif	321789.443185	321789.701777	321790.350274	8.507993e-01	44	none	NaN	NaN
115	9	19	50	bathroom	sun_aspsyogrekjtfozg.tif	321791.119844	321791.378435	321792.026839	8.174347e-01	40	none	NaN	NaN
115	9	20	34	bathroom	sun_alkosphxlxwjwgjd.tif	321792.796503	321793.055097	321793.703541	7.340230e-01	24	37	321796.389810	1
115	9	21	53	bathroom	sun_ausgutylgojavyoq.tif	321797.167500	321797.426090	321798.074468	6.839759e-01	43	none	NaN	NaN
115	9	22	13	bathroom	sun_aavhrsfjbserjtht.tif	321798.844159	321799.102749	321799.751167	6.672936e-01	3	none	NaN	NaN
115	9	23	52	bathroom	sun_aunuadmjocsddsrl.tif	321800.520822	321800.779412	321801.427746	6.506113e-01	42	none	NaN	NaN
115	9	24	12	bathroom	sun_aapitsgbtktqubfy.tif	321802.197486	321802.456072	321803.104471	7.590465e-01	2	none	NaN	NaN
115	9	25	39	bathroom	sun_anryaplzeujmzfkd.tif	321803.874141	321804.132738	321804.781133	7.340230e-01	29	none	NaN	NaN
115	9	26	29	bathroom	sun_ahqjwnzgolcaoidx.tif	321805.550804	321805.809394	321806.457740	7.089995e-01	19	none	NaN	NaN
115	9	27	26	bathroom	sun_ahaulkltgpkeeemi.tif	321807.227466	321807.486057	321808.134358	6.672936e-01	16	39	321811.197890	0
115	9	28	51	bathroom	sun_atstyziqcmkahyxk.tif	321811.973834	321812.232423	321812.880860	7.089995e-01	41	none	NaN	NaN
115	9	29	41	bathroom	sun_aoybiabnpadelefl.tif	321813.650494	321813.909081	321814.557385	7.840700e-01	31	none	NaN	NaN
115	9	30	28	bathroom	sun_ahijqszoswveeyji.tif	321815.318804	321815.577400	321816.225723	7.423641e-01	18	none	NaN	NaN
115	9	31	57	bathroom	sun_axldvoqbuvuggfmq.tif	321816.995472	321817.254058	321817.902474	7.924112e-01	47	none	NaN	NaN
115	9	32	32	bathroom	sun_aleqenyvunhactkl.tif	321818.672132	321818.930722	321819.579003	6.923171e-01	22	39	321820.829824	1
115	9	33	25	bathroom	sun_agyqfjcfkdcydepw.tif	321821.608370	321821.866958	321822.515357	8.007523e-01	15	none	NaN	NaN
115	9	34	30	bathroom	sun_ajlawzvmubibwbpy.tif	321823.285032	321823.543622	321824.192044	8.257758e-01	20	none	NaN	NaN
115	9	35	58	bathroom	sun_axxbkopsgyouuebh.tif	321824.961694	321825.220282	321825.868739	7.507053e-01	48	none	NaN	NaN
115	9	36	48	bathroom	sun_aqrpegblszgcoujh.tif	321826.638351	321826.896948	321827.545232	7.673876e-01	38	none	NaN	NaN
115	9	37	36	bathroom	sun_ambriybtogmepttm.tif	321828.315013	321828.573604	321829.222015	8.257758e-01	26	none	NaN	NaN
115	9	38	33	bathroom	sun_aljolscmmzydegqp.tif	321829.991676	321830.250268	321830.898571	7.673876e-01	23	none	NaN	NaN
115	9	39	42	bathroom	sun_apeeialkgkuxddgh.tif	321831.668335	321831.926920	321832.575277	7.840700e-01	32	none	NaN	NaN
115	9	40	55	bathroom	sun_avhrdrntsqrjzccq.tif	321833.344998	321833.603579	321834.252037	6.756348e-01	45	37	321835.189722	1
115	9	41	46	bathroom	sun_apmqjbnwghzuhhzh.tif	321835.964259	321836.222850	321836.871209	6.839759e-01	36	none	NaN	NaN
115	9	42	22	bathroom	sun_agguqiubmwhqqunb.tif	321837.640918	321837.899504	321838.547958	6.589524e-01	12	none	NaN	NaN
115	9	43	27	bathroom	sun_ahcvzmoyaycdoftf.tif	321839.317578	321839.576168	321840.224565	6.756348e-01	17	none	NaN	NaN
115	9	44	47	bathroom	sun_apynckhmoftszqoq.tif	321840.994239	321841.252829	321841.901136	6.839759e-01	37	none	NaN	NaN
115	9	45	59	bathroom	sun_axyrejkiiaqiurjk.tif	321842.662555	321842.921137	321843.569499	7.423641e-01	49	none	NaN	NaN
115	9	46	35	bathroom	sun_alotolagknyrgtsk.tif	321844.339220	321844.597807	321845.246214	6.672936e-01	25	37	321846.501582	1
115	9	47	40	bathroom	sun_aofnryafpsjimzsb.tif	321847.275456	321847.534050	321848.182428	7.089995e-01	30	37	321849.565772	0
115	9	48	23	bathroom	sun_aghyqhbptboemmoq.tif	321850.336825	321850.595414	321851.243756	7.840700e-01	13	none	NaN	NaN
115	9	49	43	bathroom	sun_apjevzvycyhuqghb.tif	321852.013480	321852.272075	321852.920367	6.672936e-01	33	none	NaN	NaN
115	9	50	37	bathroom	sun_amzlamotzwfkwjco.tif	321853.690144	321853.948735	321854.597080	8.090935e-01	27	none	NaN	NaN
