subject	block	trial	texture	category	image	trialOnset	itiOnset	trialEnd	iti	EEGtrigger	responseKey	responseTime	accuracy
 119	1	1	13	bathroom	sun_aavhrsfjbserjtht.tif	1359673.161116	1359673.419697	1359674.160296	7.509424e-01	3	none	NaN	NaN
 119	1	2	49	bathroom	sun_asfwthctfqerjvxr.tif	1359674.929530	1359675.188121	1359675.928486	8.427242e-01	39	none	NaN	NaN
 119	1	3	25	bathroom	sun_agyqfjcfkdcydepw.tif	1359676.697948	1359676.956538	1359677.696923	6.591605e-01	15	39	1359679.001865	1
 119	1	4	38	bathroom	sun_anhioqovhscjqqwb.tif	1359679.775991	1359680.034584	1359680.774915	7.843176e-01	28	none	NaN	NaN
 119	1	5	37	bathroom	sun_amzlamotzwfkwjco.tif	1359681.552755	1359681.811344	1359682.551669	7.175671e-01	27	none	NaN	NaN
 119	1	6	16	bathroom	sun_acduarbnmmoglmiv.tif	1359683.321170	1359683.579764	1359684.320231	6.925357e-01	6	none	NaN	NaN
 119	1	7	41	bathroom	sun_aoybiabnpadelefl.tif	1359685.089587	1359685.348175	1359686.088662	6.925357e-01	31	39	1359686.897840	1
 119	1	8	55	bathroom	sun_avhrdrntsqrjzccq.tif	1359687.675480	1359687.934072	1359688.674537	6.925357e-01	45	none	NaN	NaN
 119	1	9	60	bathroom	sun_azqyogdvyhahyram.tif	1359689.443898	1359689.702487	1359690.442818	7.425986e-01	50	37	1359691.369741	1
 119	1	10	29	bathroom	sun_ahqjwnzgolcaoidx.tif	1359692.146572	1359692.405166	1359693.145438	7.342548e-01	19	none	NaN	NaN
 119	1	11	15	bathroom	sun_abjtwfukuwddzted.tif	1359693.914987	1359694.173584	1359694.914043	8.343804e-01	5	37	1359695.857780	1
 119	1	12	39	bathroom	sun_anryaplzeujmzfkd.tif	1359696.634348	1359696.892937	1359697.633299	6.758481e-01	29	none	NaN	NaN
 119	1	13	17	bathroom	sun_acegryoqftbzowsg.tif	1359698.402772	1359698.661359	1359699.401824	8.093490e-01	7	none	NaN	NaN
 119	1	14	30	bathroom	sun_ajlawzvmubibwbpy.tif	1359700.171188	1359700.429773	1359701.170148	8.176928e-01	20	none	NaN	NaN
 119	1	15	23	bathroom	sun_aghyqhbptboemmoq.tif	1359701.939603	1359702.198195	1359702.938524	7.843176e-01	13	none	NaN	NaN
 119	1	16	53	bathroom	sun_ausgutylgojavyoq.tif	1359703.708020	1359703.966611	1359704.707008	7.509424e-01	43	none	NaN	NaN
 119	1	17	59	bathroom	sun_axyrejkiiaqiurjk.tif	1359705.476439	1359705.735025	1359706.475437	7.425986e-01	49	none	NaN	NaN
 119	1	18	58	bathroom	sun_axxbkopsgyouuebh.tif	1359707.244858	1359707.503443	1359708.243796	7.342548e-01	48	none	NaN	NaN
 119	1	19	14	bathroom	sun_abapwbhyhkfixyex.tif	1359709.013272	1359709.271865	1359710.012266	7.092233e-01	4	none	NaN	NaN
 119	1	20	33	bathroom	sun_aljolscmmzydegqp.tif	1359710.781688	1359711.040281	1359711.780718	6.925357e-01	23	none	NaN	NaN
 119	1	21	46	bathroom	sun_apmqjbnwghzuhhzh.tif	1359712.550103	1359712.808690	1359713.549034	7.342548e-01	36	39	1359714.345822	1
 119	1	22	18	bathroom	sun_acgyywnybuveqsro.tif	1359715.119319	1359715.377902	1359716.118279	6.758481e-01	8	none	NaN	NaN
 119	1	23	19	bathroom	sun_aclfzgynxzxlbepz.tif	1359716.887739	1359717.146326	1359717.886609	7.759738e-01	9	none	NaN	NaN
 119	1	24	11	bathroom	labelme_sfxiulhjbhlyiyt.tif	1359718.656149	1359718.914739	1359719.655038	6.675043e-01	1	39	1359720.441855	1
 119	1	25	27	bathroom	sun_ahcvzmoyaycdoftf.tif	1359721.217020	1359721.475609	1359722.215933	8.260366e-01	17	none	NaN	NaN
 119	1	26	21	bathroom	sun_aggnnqpdorgxpvce.tif	1359722.985436	1359723.244029	1359723.984309	7.592862e-01	11	none	NaN	NaN
 119	1	27	42	bathroom	sun_apeeialkgkuxddgh.tif	1359724.753855	1359725.012447	1359725.752817	7.592862e-01	32	none	NaN	NaN
 119	1	28	56	bathroom	sun_awnqiikzaispgmwo.tif	1359726.522270	1359726.780859	1359727.521212	8.176928e-01	46	none	NaN	NaN
 119	1	29	44	bathroom	sun_apkruvsevgegsdwp.tif	1359728.290689	1359728.549281	1359729.289716	7.425986e-01	34	none	NaN	NaN
 119	1	30	20	bathroom	sun_afcoljnjfoxjtgja.tif	1359730.059104	1359730.317694	1359731.058028	7.175671e-01	10	none	NaN	NaN
 119	1	31	28	bathroom	sun_ahijqszoswveeyji.tif	1359731.827528	1359732.086112	1359732.826568	8.427242e-01	18	none	NaN	NaN
 119	1	32	26	bathroom	sun_ahaulkltgpkeeemi.tif	1359733.595944	1359733.854528	1359734.595023	7.676300e-01	16	none	NaN	NaN
 119	1	33	22	bathroom	sun_agguqiubmwhqqunb.tif	1359735.364359	1359735.622952	1359736.363289	6.925357e-01	12	none	NaN	NaN
 119	1	34	47	bathroom	sun_apynckhmoftszqoq.tif	1359737.132778	1359737.391368	1359738.131757	7.592862e-01	37	none	NaN	NaN
 119	1	35	45	bathroom	sun_apkxzenqapsujocq.tif	1359738.901196	1359739.159786	1359739.900202	8.176928e-01	35	none	NaN	NaN
 119	1	36	34	bathroom	sun_alkosphxlxwjwgjd.tif	1359740.669611	1359740.928202	1359741.668674	8.343804e-01	24	none	NaN	NaN
 119	1	37	12	bathroom	sun_aapitsgbtktqubfy.tif	1359742.438029	1359742.696620	1359743.437071	8.093490e-01	2	none	NaN	NaN
 119	1	38	52	bathroom	sun_aunuadmjocsddsrl.tif	1359744.206448	1359744.465035	1359745.205528	7.092233e-01	42	none	NaN	NaN
 119	1	39	50	bathroom	sun_aspsyogrekjtfozg.tif	1359745.974864	1359746.233454	1359746.973825	7.926614e-01	40	none	NaN	NaN
 119	1	40	54	bathroom	sun_auzqhkafidnkrwmo.tif	1359747.743302	1359748.001872	1359748.742285	6.508167e-01	44	none	NaN	NaN
 119	1	41	31	bathroom	sun_akiytfaagpdsphgz.tif	1359749.511697	1359749.770290	1359750.510698	6.591605e-01	21	39	1359751.441821	1
 119	1	42	48	bathroom	sun_aqrpegblszgcoujh.tif	1359752.214375	1359752.472966	1359753.213363	8.093490e-01	38	none	NaN	NaN
 119	1	43	35	bathroom	sun_alotolagknyrgtsk.tif	1359753.982792	1359754.241382	1359754.981693	8.010052e-01	25	none	NaN	NaN
 119	1	44	24	bathroom	sun_agrwbmhcpmfuwmsg.tif	1359755.751208	1359756.009799	1359756.750148	7.259109e-01	14	none	NaN	NaN
 119	1	45	40	bathroom	sun_aofnryafpsjimzsb.tif	1359757.519625	1359757.778219	1359758.518618	7.843176e-01	30	none	NaN	NaN
 119	1	46	36	bathroom	sun_ambriybtogmepttm.tif	1359759.288044	1359759.546631	1359760.286996	7.759738e-01	26	none	NaN	NaN
 119	1	47	57	bathroom	sun_axldvoqbuvuggfmq.tif	1359761.056459	1359761.315048	1359762.055413	8.260366e-01	47	none	NaN	NaN
 119	1	48	43	bathroom	sun_apjevzvycyhuqghb.tif	1359762.824856	1359763.083468	1359763.823907	6.508167e-01	33	none	NaN	NaN
 119	1	49	32	bathroom	sun_aleqenyvunhactkl.tif	1359764.593299	1359764.851879	1359765.592306	7.008795e-01	22	none	NaN	NaN
 119	1	50	51	bathroom	sun_atstyziqcmkahyxk.tif	1359766.361713	1359766.620303	1359767.360763	8.010052e-01	41	none	NaN	NaN
 119	1	51	59	bathroom	sun_axyrejkiiaqiurjk.tif	1359768.130130	1359768.388723	1359769.129019	7.008795e-01	49	none	NaN	NaN
 119	1	52	11	bathroom	labelme_sfxiulhjbhlyiyt.tif	1359769.898548	1359770.157137	1359770.897413	7.342548e-01	1	none	NaN	NaN
 119	1	53	25	bathroom	sun_agyqfjcfkdcydepw.tif	1359771.666964	1359771.925552	1359772.665879	7.509424e-01	15	none	NaN	NaN
 119	1	54	16	bathroom	sun_acduarbnmmoglmiv.tif	1359773.435381	1359773.693966	1359774.434353	7.175671e-01	6	none	NaN	NaN
 119	1	55	21	bathroom	sun_aggnnqpdorgxpvce.tif	1359775.203796	1359775.462389	1359776.202778	7.509424e-01	11	none	NaN	NaN
 119	1	56	51	bathroom	sun_atstyziqcmkahyxk.tif	1359776.972218	1359777.230803	1359777.971202	7.926614e-01	41	none	NaN	NaN
 119	1	57	32	bathroom	sun_aleqenyvunhactkl.tif	1359778.740634	1359778.999222	1359779.739705	7.926614e-01	22	none	NaN	NaN
 119	1	58	33	bathroom	sun_aljolscmmzydegqp.tif	1359780.509048	1359780.767643	1359781.507958	7.676300e-01	23	none	NaN	NaN
 119	1	59	18	bathroom	sun_acgyywnybuveqsro.tif	1359782.277465	1359782.536051	1359783.276363	7.092233e-01	8	none	NaN	NaN
 119	1	60	36	bathroom	sun_ambriybtogmepttm.tif	1359784.045884	1359784.304472	1359785.044871	7.843176e-01	26	none	NaN	NaN
 119	1	61	13	bathroom	sun_aavhrsfjbserjtht.tif	1359785.814302	1359786.072891	1359786.813194	8.510680e-01	3	none	NaN	NaN
 119	1	62	56	bathroom	sun_awnqiikzaispgmwo.tif	1359787.582722	1359787.841306	1359788.581649	7.759738e-01	46	39	1359789.441757	1
 119	1	63	14	bathroom	sun_abapwbhyhkfixyex.tif	1359790.218658	1359790.477253	1359791.217537	6.591605e-01	4	none	NaN	NaN
 119	1	64	45	bathroom	sun_apkxzenqapsujocq.tif	1359791.987076	1359792.245670	1359792.985947	8.093490e-01	35	none	NaN	NaN
 119	1	65	38	bathroom	sun_anhioqovhscjqqwb.tif	1359793.755498	1359794.014082	1359794.754446	8.260366e-01	28	37	1359795.569700	1
 119	1	66	44	bathroom	sun_apkruvsevgegsdwp.tif	1359796.341390	1359796.599975	1359797.340318	8.010052e-01	34	37	1359798.241733	1
 119	1	67	35	bathroom	sun_alotolagknyrgtsk.tif	1359799.019035	1359799.277629	1359800.018023	6.675043e-01	25	none	NaN	NaN
 119	1	68	55	bathroom	sun_avhrdrntsqrjzccq.tif	1359800.787458	1359801.046048	1359801.786500	6.758481e-01	45	39	1359802.769782	1
 119	1	69	22	bathroom	sun_agguqiubmwhqqunb.tif	1359803.540182	1359803.798771	1359804.539122	6.841919e-01	12	none	NaN	NaN
 119	1	70	24	bathroom	sun_agrwbmhcpmfuwmsg.tif	1359805.308597	1359805.567189	1359806.307596	7.425986e-01	14	none	NaN	NaN
 119	1	71	47	bathroom	sun_apynckhmoftszqoq.tif	1359807.077021	1359807.335606	1359808.075965	8.343804e-01	37	none	NaN	NaN
 119	1	72	53	bathroom	sun_ausgutylgojavyoq.tif	1359808.845432	1359809.104024	1359809.844354	7.592862e-01	43	none	NaN	NaN
 119	1	73	15	bathroom	sun_abjtwfukuwddzted.tif	1359810.613855	1359810.872440	1359811.612758	8.010052e-01	5	none	NaN	NaN
 119	1	74	28	bathroom	sun_ahijqszoswveeyji.tif	1359812.382270	1359812.640859	1359813.381151	7.259109e-01	18	none	NaN	NaN
 119	1	75	26	bathroom	sun_ahaulkltgpkeeemi.tif	1359814.150686	1359814.409274	1359815.149604	8.176928e-01	16	37	1359815.953783	1
 119	1	76	58	bathroom	sun_axxbkopsgyouuebh.tif	1359816.728241	1359816.986826	1359817.727211	6.841919e-01	48	none	NaN	NaN
 119	1	77	17	bathroom	sun_acegryoqftbzowsg.tif	1359818.496659	1359818.755244	1359819.495532	6.841919e-01	7	37	1359820.305620	1
 119	1	78	54	bathroom	sun_auzqhkafidnkrwmo.tif	1359821.082546	1359821.341085	1359822.081610	8.343804e-01	44	none	NaN	NaN
 119	1	79	30	bathroom	sun_ajlawzvmubibwbpy.tif	1359822.850967	1359823.109551	1359823.849915	7.175671e-01	20	none	NaN	NaN
 119	1	80	19	bathroom	sun_aclfzgynxzxlbepz.tif	1359824.619382	1359824.877971	1359825.618367	8.176928e-01	9	none	NaN	NaN
 119	1	81	60	bathroom	sun_azqyogdvyhahyram.tif	1359826.387803	1359826.646392	1359827.386846	7.259109e-01	50	none	NaN	NaN
 119	1	82	50	bathroom	sun_aspsyogrekjtfozg.tif	1359828.156219	1359828.414806	1359829.155106	7.759738e-01	40	none	NaN	NaN
 119	1	83	42	bathroom	sun_apeeialkgkuxddgh.tif	1359829.924638	1359830.183226	1359830.923610	7.008795e-01	32	none	NaN	NaN
 119	1	84	49	bathroom	sun_asfwthctfqerjvxr.tif	1359831.693053	1359831.951643	1359832.692075	7.676300e-01	39	none	NaN	NaN
 119	1	85	27	bathroom	sun_ahcvzmoyaycdoftf.tif	1359833.461472	1359833.720057	1359834.460447	7.008795e-01	17	none	NaN	NaN
 119	1	86	12	bathroom	sun_aapitsgbtktqubfy.tif	1359835.229886	1359835.488477	1359836.228849	7.259109e-01	2	none	NaN	NaN
 119	1	87	23	bathroom	sun_aghyqhbptboemmoq.tif	1359836.998303	1359837.256891	1359837.997213	6.508167e-01	13	39	1359838.737664	1
 119	1	88	20	bathroom	sun_afcoljnjfoxjtgja.tif	1359839.509119	1359839.767716	1359840.508106	8.427242e-01	10	none	NaN	NaN
 119	1	89	40	bathroom	sun_aofnryafpsjimzsb.tif	1359841.277540	1359841.536119	1359842.276452	6.591605e-01	30	none	NaN	NaN
 119	1	90	39	bathroom	sun_anryaplzeujmzfkd.tif	1359843.045957	1359843.304547	1359844.044916	6.841919e-01	29	none	NaN	NaN
 119	1	91	43	bathroom	sun_apjevzvycyhuqghb.tif	1359844.814380	1359845.072962	1359845.813343	8.260366e-01	33	none	NaN	NaN
 119	1	92	34	bathroom	sun_alkosphxlxwjwgjd.tif	1359846.582791	1359846.841377	1359847.581812	6.675043e-01	24	none	NaN	NaN
 119	1	93	41	bathroom	sun_aoybiabnpadelefl.tif	1359848.351208	1359848.609799	1359849.350090	8.427242e-01	31	none	NaN	NaN
 119	1	94	46	bathroom	sun_apmqjbnwghzuhhzh.tif	1359850.119628	1359850.378214	1359851.118710	6.758481e-01	36	none	NaN	NaN
 119	1	95	57	bathroom	sun_axldvoqbuvuggfmq.tif	1359851.888045	1359852.146630	1359852.886974	8.510680e-01	47	none	NaN	NaN
 119	1	96	31	bathroom	sun_akiytfaagpdsphgz.tif	1359853.656458	1359853.915053	1359854.655445	7.509424e-01	21	37	1359855.329675	1
 119	1	97	37	bathroom	sun_amzlamotzwfkwjco.tif	1359856.100542	1359856.359136	1359857.099458	7.092233e-01	27	none	NaN	NaN
 119	1	98	29	bathroom	sun_ahqjwnzgolcaoidx.tif	1359857.868960	1359858.127552	1359858.867998	7.676300e-01	19	none	NaN	NaN
 119	1	99	52	bathroom	sun_aunuadmjocsddsrl.tif	1359859.637378	1359859.895967	1359860.636346	7.926614e-01	42	none	NaN	NaN
 119	1	100	48	bathroom	sun_aqrpegblszgcoujh.tif	1359861.405796	1359861.664388	1359862.404811	6.675043e-01	38	none	NaN	NaN
 119	2	1	62	kitchen	labelme_kxvouciolcpqplr.tif	1359873.350953	1359873.609544	1359874.299968	8.260366e-01	52	none	NaN	NaN
 119	2	2	82	kitchen	sun_aenotlpyftoioydp.tif	1359875.069322	1359875.327911	1359876.018193	7.008795e-01	72	none	NaN	NaN
 119	2	3	80	kitchen	sun_aegoxogugdkwpmpj.tif	1359876.787687	1359877.046275	1359877.736647	8.260366e-01	70	none	NaN	NaN
 119	2	4	84	kitchen	sun_aexklacwqwezaorf.tif	1359878.506056	1359878.764643	1359879.455072	7.509424e-01	74	none	NaN	NaN
 119	2	5	88	kitchen	sun_agubuxuukhzyzpdp.tif	1359880.224427	1359880.483014	1359881.173265	7.425986e-01	78	none	NaN	NaN
 119	2	6	85	kitchen	sun_afuyedyxivkhecmu.tif	1359881.942794	1359882.201385	1359882.891687	7.926614e-01	75	37	1359883.705590	1
 119	2	7	73	kitchen	sun_abrcnpqqhmjwekyf.tif	1359884.478635	1359884.737228	1359885.427594	7.592862e-01	63	none	NaN	NaN
 119	2	8	99	kitchen	sun_akcjzhbbjlbogpdi.tif	1359886.197002	1359886.455593	1359887.146024	7.259109e-01	89	none	NaN	NaN
 119	2	9	75	kitchen	sun_acgtpgfybqjmzeyw.tif	1359887.915371	1359888.173958	1359888.864195	7.592862e-01	65	none	NaN	NaN
 119	2	10	92	kitchen	sun_ahpczsiumwwocjkv.tif	1359889.633736	1359889.892329	1359890.582611	7.592862e-01	82	none	NaN	NaN
 119	2	11	67	kitchen	sun_aarfiyshqohlwkmo.tif	1359891.352107	1359891.610696	1359892.301092	7.509424e-01	57	37	1359893.025716	1
 119	2	12	89	kitchen	sun_agzzivivdpnawacl.tif	1359893.796195	1359894.054785	1359894.745201	7.092233e-01	79	none	NaN	NaN
 119	2	13	87	kitchen	sun_agorklincwxrdtga.tif	1359895.514560	1359895.773155	1359896.463552	8.343804e-01	77	none	NaN	NaN
 119	2	14	70	kitchen	sun_abdxkyyxwfskuaqb.tif	1359897.232926	1359897.491516	1359898.181875	7.008795e-01	60	none	NaN	NaN
 119	2	15	69	kitchen	sun_abdenxonkemggwsq.tif	1359898.951295	1359899.209879	1359899.900143	6.508167e-01	59	none	NaN	NaN
 119	2	16	66	kitchen	sun_aapllqyqlykszopd.tif	1359900.669665	1359900.928253	1359901.618566	7.342548e-01	56	39	1359902.465702	1
 119	2	17	104	kitchen	sun_auticobqsbwgoppi.tif	1359903.238874	1359903.497461	1359904.187840	8.010052e-01	94	none	NaN	NaN
 119	2	18	90	kitchen	sun_ahdycvpopffkzzsu.tif	1359904.957238	1359905.215829	1359905.906184	6.841919e-01	80	none	NaN	NaN
 119	2	19	96	kitchen	sun_ajcbwwvdlsvjyzje.tif	1359906.675608	1359906.934193	1359907.624509	6.925357e-01	86	none	NaN	NaN
 119	2	20	65	kitchen	sun_aamedkxepzlwuxes.tif	1359908.393973	1359908.652565	1359909.342963	7.092233e-01	55	none	NaN	NaN
 119	2	21	106	kitchen	sun_awcpdzzznmweyyhv.tif	1359910.112344	1359910.370934	1359911.061307	7.676300e-01	96	none	NaN	NaN
 119	2	22	83	kitchen	sun_aeqdocilnnpuvuhx.tif	1359911.830709	1359912.089300	1359912.779596	8.427242e-01	73	none	NaN	NaN
 119	2	23	64	kitchen	sun_aadbddgrdsjugojn.tif	1359913.549076	1359913.807672	1359914.498027	7.843176e-01	54	none	NaN	NaN
 119	2	24	61	kitchen	labelme_brsyyvweiuaazfr.tif	1359915.267449	1359915.526038	1359916.216459	7.175671e-01	51	none	NaN	NaN
 119	2	25	107	kitchen	sun_axyyrmzcupyhlivc.tif	1359916.985816	1359917.244404	1359917.934796	7.342548e-01	97	none	NaN	NaN
 119	2	26	91	kitchen	sun_ahljzhgcdpomplvg.tif	1359918.704179	1359918.962768	1359919.653148	6.591605e-01	81	none	NaN	NaN
 119	2	27	94	kitchen	sun_ahywdevtimnqcsln.tif	1359920.422547	1359920.681140	1359921.371495	7.509424e-01	84	none	NaN	NaN
 119	2	28	78	kitchen	sun_adgqasybjyktddhj.tif	1359922.140917	1359922.399509	1359923.089763	7.259109e-01	68	none	NaN	NaN
 119	2	29	102	kitchen	sun_auaiucuqpdausiva.tif	1359923.859286	1359924.117871	1359924.808194	6.925357e-01	92	none	NaN	NaN
 119	2	30	95	kitchen	sun_aixorpehvfykdynp.tif	1359925.577647	1359925.836240	1359926.526454	6.675043e-01	85	none	NaN	NaN
 119	2	31	81	kitchen	sun_aehawpgmrlhlvcow.tif	1359927.296022	1359927.554608	1359928.244967	7.008795e-01	71	39	1359929.009629	1
 119	2	32	74	kitchen	sun_acfmftudsenhrfhy.tif	1359929.781814	1359930.040404	1359930.730669	8.343804e-01	64	37	1359931.745694	1
 119	2	33	72	kitchen	sun_abpwyqmlzafvklqo.tif	1359932.517857	1359932.776439	1359933.466850	7.092233e-01	62	none	NaN	NaN
 119	2	34	109	kitchen	sun_aypmqwcualkenuoe.tif	1359934.236224	1359934.494813	1359935.185159	7.175671e-01	99	37	1359935.985680	1
 119	2	35	63	kitchen	labelme_rykdqxenmhulbdn.tif	1359936.763725	1359937.022316	1359937.712665	7.759738e-01	53	none	NaN	NaN
 119	2	36	105	kitchen	sun_avszsnwsbuqfgzbn.tif	1359938.482094	1359938.740688	1359939.431018	7.092233e-01	95	none	NaN	NaN
 119	2	37	98	kitchen	sun_akchetnepxlcxhsu.tif	1359940.200460	1359940.459046	1359941.149361	8.093490e-01	88	none	NaN	NaN
 119	2	38	86	kitchen	sun_aggjlwcdjsjcaemh.tif	1359941.918827	1359942.177416	1359942.867769	6.675043e-01	76	none	NaN	NaN
 119	2	39	68	kitchen	sun_aaxxjlsuzvqlgylf.tif	1359943.637197	1359943.895786	1359944.586078	7.509424e-01	58	none	NaN	NaN
 119	2	40	71	kitchen	sun_abftihopvusyfakt.tif	1359945.355562	1359945.614151	1359946.304504	8.427242e-01	61	none	NaN	NaN
 119	2	41	93	kitchen	sun_ahspylgoovwmwvgk.tif	1359947.073935	1359947.332524	1359948.022754	7.676300e-01	83	39	1359948.713624	1
 119	2	42	100	kitchen	sun_amjjdeyrggfqgmom.tif	1359949.484649	1359949.743242	1359950.433463	8.176928e-01	90	none	NaN	NaN
 119	2	43	108	kitchen	sun_aymvwlarqodbwuoc.tif	1359951.203017	1359951.461607	1359952.151918	6.758481e-01	98	none	NaN	NaN
 119	2	44	76	kitchen	sun_acwjdupvyjsugpay.tif	1359952.921387	1359953.179977	1359953.870303	7.843176e-01	66	none	NaN	NaN
 119	2	45	97	kitchen	sun_ajkqhtgcbgpcwrwn.tif	1359954.639754	1359954.898339	1359955.588705	7.759738e-01	87	none	NaN	NaN
 119	2	46	79	kitchen	sun_admlmbcdswaszruo.tif	1359956.358124	1359956.616713	1359957.307024	8.260366e-01	69	none	NaN	NaN
 119	2	47	77	kitchen	sun_acxkpeoqbwcxfvip.tif	1359958.076486	1359958.335077	1359959.025323	7.926614e-01	67	none	NaN	NaN
 119	2	48	103	kitchen	sun_aunzlwrbjumxhwdj.tif	1359959.794856	1359960.053447	1359960.743709	7.843176e-01	93	none	NaN	NaN
 119	2	49	110	kitchen	sun_azmutvzbxypaceni.tif	1359961.513224	1359961.771812	1359962.462081	8.010052e-01	100	none	NaN	NaN
 119	2	50	101	kitchen	sun_aqeaevwwwjoqhzvl.tif	1359963.231595	1359963.490182	1359964.180430	7.175671e-01	91	none	NaN	NaN
 119	2	51	88	kitchen	sun_agubuxuukhzyzpdp.tif	1359964.949959	1359965.208546	1359965.898884	8.176928e-01	78	none	NaN	NaN
 119	2	52	92	kitchen	sun_ahpczsiumwwocjkv.tif	1359966.668329	1359966.926916	1359967.617158	6.925357e-01	82	39	1359968.321651	1
 119	2	53	66	kitchen	sun_aapllqyqlykszopd.tif	1359969.095731	1359969.354314	1359970.044745	8.093490e-01	56	none	NaN	NaN
 119	2	54	102	kitchen	sun_auaiucuqpdausiva.tif	1359970.814097	1359971.072689	1359971.763002	7.926614e-01	92	37	1359972.609517	1
 119	2	55	78	kitchen	sun_adgqasybjyktddhj.tif	1359973.383303	1359973.641896	1359974.332277	7.926614e-01	68	none	NaN	NaN
 119	2	56	68	kitchen	sun_aaxxjlsuzvqlgylf.tif	1359975.101676	1359975.360261	1359976.050499	6.758481e-01	58	none	NaN	NaN
 119	2	57	62	kitchen	labelme_kxvouciolcpqplr.tif	1359976.820043	1359977.078631	1359977.768963	6.591605e-01	52	none	NaN	NaN
 119	2	58	100	kitchen	sun_amjjdeyrggfqgmom.tif	1359978.538406	1359978.796998	1359979.487401	6.925357e-01	90	none	NaN	NaN
 119	2	59	74	kitchen	sun_acfmftudsenhrfhy.tif	1359980.256773	1359980.515368	1359981.205728	7.175671e-01	64	none	NaN	NaN
 119	2	60	109	kitchen	sun_aypmqwcualkenuoe.tif	1359981.975139	1359982.233728	1359982.924126	8.427242e-01	99	none	NaN	NaN
 119	2	61	105	kitchen	sun_avszsnwsbuqfgzbn.tif	1359983.693514	1359983.952101	1359984.642507	7.592862e-01	95	none	NaN	NaN
 119	2	62	67	kitchen	sun_aarfiyshqohlwkmo.tif	1359985.411880	1359985.670469	1359986.360879	6.841919e-01	57	none	NaN	NaN
 119	2	63	83	kitchen	sun_aeqdocilnnpuvuhx.tif	1359987.130245	1359987.388828	1359988.079198	6.675043e-01	73	none	NaN	NaN
 119	2	64	90	kitchen	sun_ahdycvpopffkzzsu.tif	1359988.848617	1359989.107202	1359989.797625	6.758481e-01	80	none	NaN	NaN
 119	2	65	75	kitchen	sun_acgtpgfybqjmzeyw.tif	1359990.566980	1359990.825575	1359991.515900	7.759738e-01	65	none	NaN	NaN
 119	2	66	101	kitchen	sun_aqeaevwwwjoqhzvl.tif	1359992.285354	1359992.543941	1359993.234153	7.759738e-01	91	none	NaN	NaN
 119	2	67	82	kitchen	sun_aenotlpyftoioydp.tif	1359994.003719	1359994.262309	1359994.952697	6.841919e-01	72	39	1359995.673779	1
 119	2	68	97	kitchen	sun_ajkqhtgcbgpcwrwn.tif	1359996.447805	1359996.706393	1359997.396776	7.008795e-01	87	none	NaN	NaN
 119	2	69	77	kitchen	sun_acxkpeoqbwcxfvip.tif	1359998.166168	1359998.424757	1359999.115031	7.342548e-01	67	none	NaN	NaN
 119	2	70	63	kitchen	labelme_rykdqxenmhulbdn.tif	1359999.884539	1360000.143128	1360000.833354	7.425986e-01	53	none	NaN	NaN
 119	2	71	87	kitchen	sun_agorklincwxrdtga.tif	1360001.602907	1360001.861494	1360002.551829	8.343804e-01	77	none	NaN	NaN
 119	2	72	84	kitchen	sun_aexklacwqwezaorf.tif	1360003.321272	1360003.579865	1360004.270124	7.676300e-01	74	none	NaN	NaN
 119	2	73	94	kitchen	sun_ahywdevtimnqcsln.tif	1360005.039641	1360005.298229	1360005.988502	6.925357e-01	84	37	1360006.713634	1
 119	2	74	65	kitchen	sun_aamedkxepzlwuxes.tif	1360007.492066	1360007.750657	1360008.440899	8.510680e-01	55	none	NaN	NaN
 119	2	75	96	kitchen	sun_ajcbwwvdlsvjyzje.tif	1360009.210436	1360009.469025	1360010.159408	7.509424e-01	86	39	1360010.937527	1
 119	2	76	106	kitchen	sun_awcpdzzznmweyyhv.tif	1360011.712913	1360011.971503	1360012.661883	8.010052e-01	96	none	NaN	NaN
 119	2	77	80	kitchen	sun_aegoxogugdkwpmpj.tif	1360013.431280	1360013.689870	1360014.380219	8.260366e-01	70	37	1360015.153657	1
 119	2	78	95	kitchen	sun_aixorpehvfykdynp.tif	1360015.925419	1360016.184010	1360016.874243	7.425986e-01	85	none	NaN	NaN
 119	2	79	81	kitchen	sun_aehawpgmrlhlvcow.tif	1360017.643786	1360017.902375	1360018.592640	8.176928e-01	71	none	NaN	NaN
 119	2	80	76	kitchen	sun_acwjdupvyjsugpay.tif	1360019.362150	1360019.620741	1360020.310966	6.591605e-01	66	39	1360020.945732	1
 119	2	81	61	kitchen	labelme_brsyyvweiuaazfr.tif	1360021.722824	1360021.981410	1360022.671815	8.093490e-01	51	none	NaN	NaN
 119	2	82	98	kitchen	sun_akchetnepxlcxhsu.tif	1360023.441192	1360023.699781	1360024.390080	8.010052e-01	88	none	NaN	NaN
 119	2	83	91	kitchen	sun_ahljzhgcdpomplvg.tif	1360025.159555	1360025.418145	1360026.108481	6.508167e-01	81	none	NaN	NaN
 119	2	84	72	kitchen	sun_abpwyqmlzafvklqo.tif	1360026.877926	1360027.136518	1360027.826913	6.591605e-01	62	none	NaN	NaN
 119	2	85	107	kitchen	sun_axyyrmzcupyhlivc.tif	1360028.596289	1360028.854879	1360029.545282	7.425986e-01	97	39	1360030.369550	1
 119	2	86	104	kitchen	sun_auticobqsbwgoppi.tif	1360031.140478	1360031.399064	1360032.089308	6.841919e-01	94	none	NaN	NaN
 119	2	87	108	kitchen	sun_aymvwlarqodbwuoc.tif	1360032.858846	1360033.117428	1360033.807691	7.259109e-01	98	none	NaN	NaN
 119	2	88	93	kitchen	sun_ahspylgoovwmwvgk.tif	1360034.577215	1360034.835803	1360035.526335	8.176928e-01	83	none	NaN	NaN
 119	2	89	86	kitchen	sun_aggjlwcdjsjcaemh.tif	1360036.295576	1360036.554172	1360037.244587	8.176928e-01	76	none	NaN	NaN
 119	2	90	103	kitchen	sun_aunzlwrbjumxhwdj.tif	1360038.013948	1360038.272536	1360038.962892	6.508167e-01	93	none	NaN	NaN
 119	2	91	73	kitchen	sun_abrcnpqqhmjwekyf.tif	1360039.732315	1360039.990901	1360040.681218	7.342548e-01	63	none	NaN	NaN
 119	2	92	89	kitchen	sun_agzzivivdpnawacl.tif	1360041.450680	1360041.709277	1360042.399485	7.676300e-01	79	none	NaN	NaN
 119	2	93	71	kitchen	sun_abftihopvusyfakt.tif	1360043.169050	1360043.427639	1360044.117873	6.758481e-01	61	none	NaN	NaN
 119	2	94	85	kitchen	sun_afuyedyxivkhecmu.tif	1360044.887415	1360045.146005	1360045.836426	8.510680e-01	75	none	NaN	NaN
 119	2	95	64	kitchen	sun_aadbddgrdsjugojn.tif	1360046.605785	1360046.864380	1360047.554772	6.675043e-01	54	none	NaN	NaN
 119	2	96	110	kitchen	sun_azmutvzbxypaceni.tif	1360048.324155	1360048.582745	1360049.272981	8.427242e-01	100	none	NaN	NaN
 119	2	97	70	kitchen	sun_abdxkyyxwfskuaqb.tif	1360050.042519	1360050.301105	1360050.991373	8.343804e-01	60	none	NaN	NaN
 119	2	98	99	kitchen	sun_akcjzhbbjlbogpdi.tif	1360051.760889	1360052.019483	1360052.709756	7.843176e-01	89	none	NaN	NaN
 119	2	99	79	kitchen	sun_admlmbcdswaszruo.tif	1360053.479257	1360053.737846	1360054.428168	8.093490e-01	69	none	NaN	NaN
 119	2	100	69	kitchen	sun_abdenxonkemggwsq.tif	1360055.197624	1360055.456225	1360056.146610	7.259109e-01	59	none	NaN	NaN
 119	3	1	27	bathroom	sun_ahcvzmoyaycdoftf.tif	1360067.976940	1360068.235525	1360069.051084	8.260366e-01	17	none	NaN	NaN
 119	3	2	21	bathroom	sun_aggnnqpdorgxpvce.tif	1360069.820428	1360070.079021	1360070.894389	6.925357e-01	11	39	1360072.337654	1
 119	3	3	19	bathroom	sun_aclfzgynxzxlbepz.tif	1360073.115357	1360073.373947	1360074.189522	8.260366e-01	9	none	NaN	NaN
 119	3	4	46	bathroom	sun_apmqjbnwghzuhhzh.tif	1360074.958849	1360075.217441	1360076.032980	7.092233e-01	36	none	NaN	NaN
 119	3	5	17	bathroom	sun_acegryoqftbzowsg.tif	1360076.802345	1360077.060926	1360077.876482	8.427242e-01	7	none	NaN	NaN
 119	3	6	34	bathroom	sun_alkosphxlxwjwgjd.tif	1360078.645836	1360078.904421	1360079.719928	7.259109e-01	24	none	NaN	NaN
 119	3	7	18	bathroom	sun_acgyywnybuveqsro.tif	1360080.489325	1360080.747915	1360081.563360	7.092233e-01	8	none	NaN	NaN
 119	3	8	38	bathroom	sun_anhioqovhscjqqwb.tif	1360082.332813	1360082.591403	1360083.406768	6.758481e-01	28	none	NaN	NaN
 119	3	9	50	bathroom	sun_aspsyogrekjtfozg.tif	1360084.176304	1360084.434897	1360085.250383	8.427242e-01	40	none	NaN	NaN
 119	3	10	29	bathroom	sun_ahqjwnzgolcaoidx.tif	1360086.019801	1360086.278390	1360087.093962	7.092233e-01	19	39	1360127.321284	0
 119	3	11	53	bathroom	sun_ausgutylgojavyoq.tif	1360128.094779	1360128.353370	1360129.168832	6.591605e-01	43	none	NaN	NaN
 119	3	12	59	bathroom	sun_axyrejkiiaqiurjk.tif	1360129.938269	1360130.196861	1360131.012304	7.843176e-01	49	none	NaN	NaN
 119	3	13	24	bathroom	sun_agrwbmhcpmfuwmsg.tif	1360131.781763	1360132.040354	1360132.855882	8.010052e-01	14	none	NaN	NaN
 119	3	14	58	bathroom	sun_axxbkopsgyouuebh.tif	1360133.625253	1360133.883845	1360134.699329	7.509424e-01	48	none	NaN	NaN
 119	3	15	31	bathroom	sun_akiytfaagpdsphgz.tif	1360135.468745	1360135.727338	1360136.542768	6.841919e-01	21	none	NaN	NaN
 119	3	16	13	bathroom	sun_aavhrsfjbserjtht.tif	1360137.312235	1360137.570830	1360138.386290	7.592862e-01	3	none	NaN	NaN
 119	3	17	54	bathroom	sun_auzqhkafidnkrwmo.tif	1360139.155726	1360139.414316	1360140.229799	8.343804e-01	44	37	1360141.049266	1
 119	3	18	37	bathroom	sun_amzlamotzwfkwjco.tif	1360141.825040	1360142.083624	1360142.899167	7.342548e-01	27	none	NaN	NaN
 119	3	19	49	bathroom	sun_asfwthctfqerjvxr.tif	1360143.668528	1360143.927117	1360144.742512	7.175671e-01	39	none	NaN	NaN
 119	3	20	45	bathroom	sun_apkxzenqapsujocq.tif	1360145.512020	1360145.770608	1360146.586094	6.758481e-01	35	none	NaN	NaN
 119	3	21	39	bathroom	sun_anryaplzeujmzfkd.tif	1360147.355512	1360147.614097	1360148.429652	6.508167e-01	29	none	NaN	NaN
 119	3	22	51	bathroom	sun_atstyziqcmkahyxk.tif	1360149.199004	1360149.457594	1360150.273026	7.676300e-01	41	none	NaN	NaN
 119	3	23	30	bathroom	sun_ajlawzvmubibwbpy.tif	1360151.042493	1360151.301082	1360152.116580	6.925357e-01	20	none	NaN	NaN
 119	3	24	33	bathroom	sun_aljolscmmzydegqp.tif	1360152.885985	1360153.144577	1360153.960027	7.843176e-01	23	none	NaN	NaN
 119	3	25	20	bathroom	sun_afcoljnjfoxjtgja.tif	1360154.729478	1360154.988067	1360155.803460	6.758481e-01	10	none	NaN	NaN
 119	3	26	60	bathroom	sun_azqyogdvyhahyram.tif	1360156.572969	1360156.831560	1360157.647000	8.093490e-01	50	none	NaN	NaN
 119	3	27	22	bathroom	sun_agguqiubmwhqqunb.tif	1360158.416458	1360158.675049	1360159.490507	7.676300e-01	12	39	1360160.433464	1
 119	3	28	55	bathroom	sun_avhrdrntsqrjzccq.tif	1360161.210894	1360161.469480	1360162.285072	7.175671e-01	45	none	NaN	NaN
 119	3	29	52	bathroom	sun_aunuadmjocsddsrl.tif	1360163.054384	1360163.312979	1360164.128533	7.008795e-01	42	none	NaN	NaN
 119	3	30	14	bathroom	sun_abapwbhyhkfixyex.tif	1360164.897875	1360165.156466	1360165.971989	7.926614e-01	4	none	NaN	NaN
 119	3	31	35	bathroom	sun_alotolagknyrgtsk.tif	1360166.741365	1360166.999956	1360167.815484	7.759738e-01	25	39	1360169.249373	1
 119	3	32	11	bathroom	labelme_sfxiulhjbhlyiyt.tif	1360170.019607	1360170.278203	1360171.093614	7.342548e-01	1	none	NaN	NaN
 119	3	33	48	bathroom	sun_aqrpegblszgcoujh.tif	1360171.863102	1360172.121691	1360172.937187	8.260366e-01	38	none	NaN	NaN
 119	3	34	28	bathroom	sun_ahijqszoswveeyji.tif	1360173.706591	1360173.965182	1360174.780549	7.509424e-01	18	39	1360175.729227	1
 119	3	35	57	bathroom	sun_axldvoqbuvuggfmq.tif	1360176.501027	1360176.759613	1360177.575103	7.926614e-01	47	none	NaN	NaN
 119	3	36	26	bathroom	sun_ahaulkltgpkeeemi.tif	1360178.344522	1360178.603109	1360179.418521	7.259109e-01	16	none	NaN	NaN
 119	3	37	23	bathroom	sun_aghyqhbptboemmoq.tif	1360180.188014	1360180.446597	1360181.262116	8.176928e-01	13	none	NaN	NaN
 119	3	38	47	bathroom	sun_apynckhmoftszqoq.tif	1360182.031503	1360182.290091	1360183.105604	7.425986e-01	37	none	NaN	NaN
 119	3	39	42	bathroom	sun_apeeialkgkuxddgh.tif	1360183.874994	1360184.133584	1360184.949028	7.676300e-01	32	39	1360185.705479	1
 119	3	40	25	bathroom	sun_agyqfjcfkdcydepw.tif	1360186.477568	1360186.736160	1360187.551687	6.841919e-01	15	none	NaN	NaN
 119	3	41	32	bathroom	sun_aleqenyvunhactkl.tif	1360188.321060	1360188.579646	1360189.395031	7.509424e-01	22	39	1360190.377488	1
 119	3	42	12	bathroom	sun_aapitsgbtktqubfy.tif	1360191.148859	1360191.407449	1360192.222939	8.010052e-01	2	none	NaN	NaN
 119	3	43	36	bathroom	sun_ambriybtogmepttm.tif	1360192.992353	1360193.250938	1360194.066516	7.008795e-01	26	none	NaN	NaN
 119	3	44	44	bathroom	sun_apkruvsevgegsdwp.tif	1360194.835842	1360195.094430	1360195.909926	8.510680e-01	34	none	NaN	NaN
 119	3	45	56	bathroom	sun_awnqiikzaispgmwo.tif	1360196.679331	1360196.937923	1360197.753502	6.758481e-01	46	none	NaN	NaN
 119	3	46	15	bathroom	sun_abjtwfukuwddzted.tif	1360198.522825	1360198.781413	1360199.596841	8.427242e-01	5	none	NaN	NaN
 119	3	47	16	bathroom	sun_acduarbnmmoglmiv.tif	1360200.366316	1360200.624906	1360201.440323	6.925357e-01	6	none	NaN	NaN
 119	3	48	43	bathroom	sun_apjevzvycyhuqghb.tif	1360202.209805	1360202.468401	1360203.283979	7.759738e-01	33	none	NaN	NaN
 119	3	49	40	bathroom	sun_aofnryafpsjimzsb.tif	1360204.053301	1360204.311890	1360205.127357	6.675043e-01	30	none	NaN	NaN
 119	3	50	41	bathroom	sun_aoybiabnpadelefl.tif	1360205.896789	1360206.155381	1360206.970815	6.675043e-01	31	none	NaN	NaN
 119	3	51	27	bathroom	sun_ahcvzmoyaycdoftf.tif	1360207.740284	1360207.998870	1360208.814379	8.343804e-01	17	37	1360209.689334	1
 119	3	52	36	bathroom	sun_ambriybtogmepttm.tif	1360210.459642	1360210.718236	1360211.533626	8.343804e-01	26	none	NaN	NaN
 119	3	53	37	bathroom	sun_amzlamotzwfkwjco.tif	1360212.303132	1360212.561727	1360213.377239	8.093490e-01	27	none	NaN	NaN
 119	3	54	14	bathroom	sun_abapwbhyhkfixyex.tif	1360214.146623	1360214.405212	1360215.220664	8.010052e-01	4	none	NaN	NaN
 119	3	55	40	bathroom	sun_aofnryafpsjimzsb.tif	1360215.990118	1360216.248708	1360217.064181	7.175671e-01	30	none	NaN	NaN
 119	3	56	41	bathroom	sun_aoybiabnpadelefl.tif	1360217.833609	1360218.092199	1360218.907717	6.591605e-01	31	none	NaN	NaN
 119	3	57	39	bathroom	sun_anryaplzeujmzfkd.tif	1360219.677098	1360219.935685	1360220.751057	6.841919e-01	29	none	NaN	NaN
 119	3	58	43	bathroom	sun_apjevzvycyhuqghb.tif	1360221.520592	1360221.779177	1360222.594572	6.925357e-01	33	none	NaN	NaN
 119	3	59	60	bathroom	sun_azqyogdvyhahyram.tif	1360223.364081	1360223.622674	1360224.438151	7.008795e-01	50	39	1360225.625517	1
 119	3	60	38	bathroom	sun_anhioqovhscjqqwb.tif	1360226.400422	1360226.659006	1360227.474544	7.259109e-01	28	none	NaN	NaN
 119	3	61	12	bathroom	sun_aapitsgbtktqubfy.tif	1360228.243916	1360228.502501	1360229.317981	7.425986e-01	2	none	NaN	NaN
 119	3	62	11	bathroom	labelme_sfxiulhjbhlyiyt.tif	1360230.087405	1360230.345992	1360231.161446	7.759738e-01	1	none	NaN	NaN
 119	3	63	30	bathroom	sun_ajlawzvmubibwbpy.tif	1360231.930895	1360232.189483	1360233.004928	8.176928e-01	20	none	NaN	NaN
 119	3	64	28	bathroom	sun_ahijqszoswveeyji.tif	1360233.774386	1360234.032978	1360234.848542	6.508167e-01	18	none	NaN	NaN
 119	3	65	48	bathroom	sun_aqrpegblszgcoujh.tif	1360235.617876	1360235.876467	1360236.691944	7.509424e-01	38	none	NaN	NaN
 119	3	66	25	bathroom	sun_agyqfjcfkdcydepw.tif	1360237.461370	1360237.719960	1360238.535324	7.425986e-01	15	none	NaN	NaN
 119	3	67	23	bathroom	sun_aghyqhbptboemmoq.tif	1360239.304858	1360239.563449	1360240.378891	6.925357e-01	13	none	NaN	NaN
 119	3	68	16	bathroom	sun_acduarbnmmoglmiv.tif	1360241.148352	1360241.406940	1360242.222527	7.342548e-01	6	none	NaN	NaN
 119	3	69	58	bathroom	sun_axxbkopsgyouuebh.tif	1360242.991841	1360243.250435	1360244.065805	8.260366e-01	48	none	NaN	NaN
 119	3	70	21	bathroom	sun_aggnnqpdorgxpvce.tif	1360244.835335	1360245.093924	1360245.909293	8.176928e-01	11	none	NaN	NaN
 119	3	71	26	bathroom	sun_ahaulkltgpkeeemi.tif	1360246.678761	1360246.937414	1360247.752885	8.093490e-01	16	none	NaN	NaN
 119	3	72	34	bathroom	sun_alkosphxlxwjwgjd.tif	1360248.522320	1360248.780909	1360249.596345	6.508167e-01	24	none	NaN	NaN
 119	3	73	52	bathroom	sun_aunuadmjocsddsrl.tif	1360250.365804	1360250.624356	1360251.439924	6.675043e-01	42	none	NaN	NaN
 119	3	74	15	bathroom	sun_abjtwfukuwddzted.tif	1360252.209303	1360252.467892	1360253.283443	7.592862e-01	5	none	NaN	NaN
 119	3	75	13	bathroom	sun_aavhrsfjbserjtht.tif	1360254.052794	1360254.311380	1360255.126849	7.676300e-01	3	none	NaN	NaN
 119	3	76	46	bathroom	sun_apmqjbnwghzuhhzh.tif	1360255.896283	1360256.154873	1360256.970242	8.427242e-01	36	none	NaN	NaN
 119	3	77	59	bathroom	sun_axyrejkiiaqiurjk.tif	1360257.739774	1360257.998362	1360258.813843	7.926614e-01	49	none	NaN	NaN
 119	3	78	42	bathroom	sun_apeeialkgkuxddgh.tif	1360259.583263	1360259.841857	1360260.657389	7.843176e-01	32	none	NaN	NaN
 119	3	79	24	bathroom	sun_agrwbmhcpmfuwmsg.tif	1360261.426759	1360261.685347	1360262.500811	8.010052e-01	14	none	NaN	NaN
 119	3	80	35	bathroom	sun_alotolagknyrgtsk.tif	1360263.270249	1360263.528839	1360264.344267	7.175671e-01	25	37	1360265.353302	1
 119	3	81	57	bathroom	sun_axldvoqbuvuggfmq.tif	1360266.131413	1360266.389999	1360267.205514	8.176928e-01	47	none	NaN	NaN
 119	3	82	32	bathroom	sun_aleqenyvunhactkl.tif	1360267.974905	1360268.233495	1360269.049016	7.425986e-01	22	none	NaN	NaN
 119	3	83	55	bathroom	sun_avhrdrntsqrjzccq.tif	1360269.818401	1360270.076991	1360270.892423	7.926614e-01	45	37	1360271.617508	1
 119	3	84	22	bathroom	sun_agguqiubmwhqqunb.tif	1360272.395945	1360272.654542	1360273.470094	6.591605e-01	12	none	NaN	NaN
 119	3	85	45	bathroom	sun_apkxzenqapsujocq.tif	1360274.239440	1360274.498030	1360275.313547	7.342548e-01	35	none	NaN	NaN
 119	3	86	20	bathroom	sun_afcoljnjfoxjtgja.tif	1360276.082931	1360276.341523	1360277.157077	7.843176e-01	10	37	1360277.865320	1
 119	3	87	19	bathroom	sun_aclfzgynxzxlbepz.tif	1360278.643799	1360278.902391	1360279.717975	7.509424e-01	9	none	NaN	NaN
 119	3	88	31	bathroom	sun_akiytfaagpdsphgz.tif	1360280.487290	1360280.745882	1360281.561261	7.592862e-01	21	none	NaN	NaN
 119	3	89	47	bathroom	sun_apynckhmoftszqoq.tif	1360282.330787	1360282.589372	1360283.404962	8.510680e-01	37	none	NaN	NaN
 119	3	90	17	bathroom	sun_acegryoqftbzowsg.tif	1360284.174274	1360284.432867	1360285.248381	6.841919e-01	7	none	NaN	NaN
 119	3	91	33	bathroom	sun_aljolscmmzydegqp.tif	1360286.017767	1360286.276355	1360287.091906	7.259109e-01	23	none	NaN	NaN
 119	3	92	51	bathroom	sun_atstyziqcmkahyxk.tif	1360287.861256	1360288.119844	1360288.935244	6.675043e-01	41	37	1360289.681538	1
 119	3	93	54	bathroom	sun_auzqhkafidnkrwmo.tif	1360290.455495	1360290.714081	1360291.529481	8.176928e-01	44	none	NaN	NaN
 119	3	94	18	bathroom	sun_acgyywnybuveqsro.tif	1360292.298983	1360292.557573	1360293.373017	7.008795e-01	8	none	NaN	NaN
 119	3	95	50	bathroom	sun_aspsyogrekjtfozg.tif	1360294.142479	1360294.401069	1360295.216472	7.092233e-01	40	none	NaN	NaN
 119	3	96	53	bathroom	sun_ausgutylgojavyoq.tif	1360295.985968	1360296.244559	1360297.060046	7.759738e-01	43	none	NaN	NaN
 119	3	97	56	bathroom	sun_awnqiikzaispgmwo.tif	1360297.829456	1360298.088048	1360298.903622	8.093490e-01	46	37	1360299.601393	1
 119	3	98	49	bathroom	sun_asfwthctfqerjvxr.tif	1360300.373644	1360300.632234	1360301.447702	7.592862e-01	39	none	NaN	NaN
 119	3	99	44	bathroom	sun_apkruvsevgegsdwp.tif	1360302.217133	1360302.475722	1360303.291255	6.591605e-01	34	none	NaN	NaN
 119	3	100	29	bathroom	sun_ahqjwnzgolcaoidx.tif	1360304.060631	1360304.319212	1360305.134659	8.343804e-01	19	none	NaN	NaN
 119	4	1	68	kitchen	sun_aaxxjlsuzvqlgylf.tif	1360315.939054	1360316.197638	1360316.896381	7.259109e-01	58	none	NaN	NaN
 119	4	2	77	kitchen	sun_acxkpeoqbwcxfvip.tif	1360317.665757	1360317.924350	1360318.623002	7.008795e-01	67	none	NaN	NaN
 119	4	3	79	kitchen	sun_admlmbcdswaszruo.tif	1360319.392468	1360319.651055	1360320.349765	8.176928e-01	69	none	NaN	NaN
 119	4	4	86	kitchen	sun_aggjlwcdjsjcaemh.tif	1360321.119177	1360321.377768	1360322.076379	7.092233e-01	76	none	NaN	NaN
 119	4	5	94	kitchen	sun_ahywdevtimnqcsln.tif	1360322.845884	1360323.104477	1360323.803085	7.008795e-01	84	none	NaN	NaN
 119	4	6	95	kitchen	sun_aixorpehvfykdynp.tif	1360324.572599	1360324.831185	1360325.529789	6.758481e-01	85	none	NaN	NaN
 119	4	7	75	kitchen	sun_acgtpgfybqjmzeyw.tif	1360326.299308	1360326.557896	1360327.256654	7.509424e-01	65	none	NaN	NaN
 119	4	8	88	kitchen	sun_agubuxuukhzyzpdp.tif	1360328.026011	1360328.284604	1360328.983255	6.591605e-01	78	none	NaN	NaN
 119	4	9	85	kitchen	sun_afuyedyxivkhecmu.tif	1360329.752723	1360330.011315	1360330.710007	7.843176e-01	75	37	1360331.353395	1
 119	4	10	104	kitchen	sun_auticobqsbwgoppi.tif	1360332.130077	1360332.388663	1360333.087340	7.592862e-01	94	39	1360333.897396	1
 119	4	11	72	kitchen	sun_abpwyqmlzafvklqo.tif	1360334.674261	1360334.932849	1360335.631502	7.926614e-01	62	none	NaN	NaN
 119	4	12	66	kitchen	sun_aapllqyqlykszopd.tif	1360336.400969	1360336.659556	1360337.358124	7.259109e-01	56	none	NaN	NaN
 119	4	13	69	kitchen	sun_abdenxonkemggwsq.tif	1360338.127679	1360338.386269	1360339.084974	8.093490e-01	59	39	1360339.897316	1
 119	4	14	108	kitchen	sun_aymvwlarqodbwuoc.tif	1360340.671863	1360340.930452	1360341.629170	6.758481e-01	98	none	NaN	NaN
 119	4	15	105	kitchen	sun_avszsnwsbuqfgzbn.tif	1360342.398573	1360342.657160	1360343.355756	7.509424e-01	95	none	NaN	NaN
 119	4	16	78	kitchen	sun_adgqasybjyktddhj.tif	1360344.125282	1360344.383873	1360345.082515	8.010052e-01	68	none	NaN	NaN
 119	4	17	101	kitchen	sun_aqeaevwwwjoqhzvl.tif	1360345.851990	1360346.110585	1360346.809202	8.510680e-01	91	39	1360349.529388	1
 119	4	18	99	kitchen	sun_akcjzhbbjlbogpdi.tif	1360350.306403	1360350.564993	1360351.263659	6.841919e-01	89	none	NaN	NaN
 119	4	19	90	kitchen	sun_ahdycvpopffkzzsu.tif	1360352.033110	1360352.291698	1360352.990382	7.425986e-01	80	none	NaN	NaN
 119	4	20	70	kitchen	sun_abdxkyyxwfskuaqb.tif	1360353.759817	1360354.018404	1360354.717102	8.343804e-01	60	none	NaN	NaN
 119	4	21	81	kitchen	sun_aehawpgmrlhlvcow.tif	1360355.486527	1360355.745119	1360356.443770	8.010052e-01	71	39	1360357.545342	1
 119	4	22	106	kitchen	sun_awcpdzzznmweyyhv.tif	1360358.322666	1360358.581255	1360359.279885	8.093490e-01	96	none	NaN	NaN
 119	4	23	93	kitchen	sun_ahspylgoovwmwvgk.tif	1360360.049381	1360360.307967	1360361.006732	6.508167e-01	83	none	NaN	NaN
 119	4	24	97	kitchen	sun_ajkqhtgcbgpcwrwn.tif	1360361.776088	1360362.034680	1360362.733344	7.175671e-01	87	none	NaN	NaN
 119	4	25	91	kitchen	sun_ahljzhgcdpomplvg.tif	1360363.502799	1360363.761386	1360364.460078	7.259109e-01	81	none	NaN	NaN
 119	4	26	96	kitchen	sun_ajcbwwvdlsvjyzje.tif	1360365.229505	1360365.488098	1360366.186729	8.093490e-01	86	none	NaN	NaN
 119	4	27	62	kitchen	labelme_kxvouciolcpqplr.tif	1360366.956217	1360367.214805	1360367.913506	7.759738e-01	52	none	NaN	NaN
 119	4	28	109	kitchen	sun_aypmqwcualkenuoe.tif	1360368.682924	1360368.941514	1360369.640265	7.759738e-01	99	37	1360370.425419	1
 119	4	29	76	kitchen	sun_acwjdupvyjsugpay.tif	1360371.202086	1360371.460676	1360372.159326	8.093490e-01	66	none	NaN	NaN
 119	4	30	87	kitchen	sun_agorklincwxrdtga.tif	1360372.928794	1360373.187389	1360373.886001	8.427242e-01	77	none	NaN	NaN
 119	4	31	102	kitchen	sun_auaiucuqpdausiva.tif	1360374.655502	1360374.914089	1360375.612743	8.343804e-01	92	none	NaN	NaN
 119	4	32	110	kitchen	sun_azmutvzbxypaceni.tif	1360376.382209	1360376.640802	1360377.339465	7.676300e-01	100	39	1360378.025400	1
 119	4	33	98	kitchen	sun_akchetnepxlcxhsu.tif	1360378.801270	1360379.059863	1360379.758601	6.675043e-01	88	none	NaN	NaN
 119	4	34	100	kitchen	sun_amjjdeyrggfqgmom.tif	1360380.527978	1360380.786573	1360381.485139	7.342548e-01	90	37	1360382.137532	1
 119	4	35	107	kitchen	sun_axyyrmzcupyhlivc.tif	1360382.913675	1360383.172266	1360383.870900	7.676300e-01	97	none	NaN	NaN
 119	4	36	65	kitchen	sun_aamedkxepzlwuxes.tif	1360384.640385	1360384.898975	1360385.597624	8.176928e-01	55	none	NaN	NaN
 119	4	37	64	kitchen	sun_aadbddgrdsjugojn.tif	1360386.367098	1360386.625686	1360387.324278	7.342548e-01	54	37	1360388.033250	1
 119	4	38	89	kitchen	sun_agzzivivdpnawacl.tif	1360388.811180	1360389.069769	1360389.768533	8.427242e-01	79	none	NaN	NaN
 119	4	39	103	kitchen	sun_aunzlwrbjumxhwdj.tif	1360390.537890	1360390.796479	1360391.495183	6.841919e-01	93	none	NaN	NaN
 119	4	40	71	kitchen	sun_abftihopvusyfakt.tif	1360392.264601	1360392.523191	1360393.221824	7.425986e-01	61	none	NaN	NaN
 119	4	41	83	kitchen	sun_aeqdocilnnpuvuhx.tif	1360393.991307	1360394.249897	1360394.948479	6.508167e-01	73	none	NaN	NaN
 119	4	42	73	kitchen	sun_abrcnpqqhmjwekyf.tif	1360395.718020	1360395.976608	1360396.675248	6.508167e-01	63	none	NaN	NaN
 119	4	43	84	kitchen	sun_aexklacwqwezaorf.tif	1360397.444724	1360397.703317	1360398.401984	7.175671e-01	74	none	NaN	NaN
 119	4	44	92	kitchen	sun_ahpczsiumwwocjkv.tif	1360399.171437	1360399.430026	1360400.128653	7.676300e-01	82	none	NaN	NaN
 119	4	45	82	kitchen	sun_aenotlpyftoioydp.tif	1360400.898140	1360401.156735	1360401.855476	8.176928e-01	72	39	1360402.577455	1
 119	4	46	80	kitchen	sun_aegoxogugdkwpmpj.tif	1360403.350573	1360403.609164	1360404.307802	6.925357e-01	70	none	NaN	NaN
 119	4	47	61	kitchen	labelme_brsyyvweiuaazfr.tif	1360405.077280	1360405.335871	1360406.034598	7.092233e-01	51	none	NaN	NaN
 119	4	48	63	kitchen	labelme_rykdqxenmhulbdn.tif	1360406.803993	1360407.062578	1360407.761336	8.176928e-01	53	37	1360408.417245	1
 119	4	49	67	kitchen	sun_aarfiyshqohlwkmo.tif	1360409.189689	1360409.448277	1360410.146979	7.008795e-01	57	none	NaN	NaN
 119	4	50	74	kitchen	sun_acfmftudsenhrfhy.tif	1360410.916395	1360411.174986	1360411.873723	7.425986e-01	64	none	NaN	NaN
 119	4	51	91	kitchen	sun_ahljzhgcdpomplvg.tif	1360412.643109	1360412.901695	1360413.600357	7.926614e-01	81	none	NaN	NaN
 119	4	52	85	kitchen	sun_afuyedyxivkhecmu.tif	1360414.369815	1360414.628400	1360415.327070	8.260366e-01	75	none	NaN	NaN
 119	4	53	78	kitchen	sun_adgqasybjyktddhj.tif	1360416.096524	1360416.355111	1360417.053762	6.758481e-01	68	none	NaN	NaN
 119	4	54	92	kitchen	sun_ahpczsiumwwocjkv.tif	1360417.823235	1360418.081824	1360418.780478	6.591605e-01	82	none	NaN	NaN
 119	4	55	87	kitchen	sun_agorklincwxrdtga.tif	1360419.549941	1360419.808530	1360420.507129	8.260366e-01	77	none	NaN	NaN
 119	4	56	102	kitchen	sun_auaiucuqpdausiva.tif	1360421.276652	1360421.535232	1360422.233915	7.259109e-01	92	none	NaN	NaN
 119	4	57	66	kitchen	sun_aapllqyqlykszopd.tif	1360423.003360	1360423.261948	1360423.960602	8.010052e-01	56	39	1360424.705319	1
 119	4	58	106	kitchen	sun_awcpdzzznmweyyhv.tif	1360425.480812	1360425.739397	1360426.437983	7.092233e-01	96	none	NaN	NaN
 119	4	59	64	kitchen	sun_aadbddgrdsjugojn.tif	1360427.207521	1360427.466111	1360428.164693	7.092233e-01	54	none	NaN	NaN
 119	4	60	80	kitchen	sun_aegoxogugdkwpmpj.tif	1360428.934232	1360429.192819	1360429.891407	6.675043e-01	70	none	NaN	NaN
 119	4	61	73	kitchen	sun_abrcnpqqhmjwekyf.tif	1360430.660936	1360430.919531	1360431.618183	7.676300e-01	63	none	NaN	NaN
 119	4	62	105	kitchen	sun_avszsnwsbuqfgzbn.tif	1360432.387650	1360432.646236	1360433.344826	7.425986e-01	95	none	NaN	NaN
 119	4	63	62	kitchen	labelme_kxvouciolcpqplr.tif	1360434.114356	1360434.372949	1360435.071537	7.175671e-01	52	none	NaN	NaN
 119	4	64	89	kitchen	sun_agzzivivdpnawacl.tif	1360435.841065	1360436.099660	1360436.798367	6.675043e-01	79	none	NaN	NaN
 119	4	65	103	kitchen	sun_aunzlwrbjumxhwdj.tif	1360437.567775	1360437.826367	1360438.524995	8.260366e-01	93	37	1360439.169295	1
 119	4	66	108	kitchen	sun_aymvwlarqodbwuoc.tif	1360439.945132	1360440.203721	1360440.902443	8.427242e-01	98	none	NaN	NaN
 119	4	67	72	kitchen	sun_abpwyqmlzafvklqo.tif	1360441.671840	1360441.930427	1360442.629063	7.509424e-01	62	none	NaN	NaN
 119	4	68	70	kitchen	sun_abdxkyyxwfskuaqb.tif	1360443.398556	1360443.657132	1360444.355813	6.925357e-01	60	none	NaN	NaN
 119	4	69	68	kitchen	sun_aaxxjlsuzvqlgylf.tif	1360445.125255	1360445.383844	1360446.082563	6.758481e-01	58	37	1360446.865306	1
 119	4	70	110	kitchen	sun_azmutvzbxypaceni.tif	1360447.636072	1360447.894663	1360448.593215	7.509424e-01	100	none	NaN	NaN
 119	4	71	107	kitchen	sun_axyyrmzcupyhlivc.tif	1360449.362781	1360449.621376	1360450.320142	6.925357e-01	97	none	NaN	NaN
 119	4	72	97	kitchen	sun_ajkqhtgcbgpcwrwn.tif	1360451.089495	1360451.348082	1360452.046794	7.342548e-01	87	none	NaN	NaN
 119	4	73	65	kitchen	sun_aamedkxepzlwuxes.tif	1360452.816206	1360453.074792	1360453.773348	7.592862e-01	55	39	1360454.505220	1
 119	4	74	99	kitchen	sun_akcjzhbbjlbogpdi.tif	1360455.276971	1360455.535559	1360456.234129	6.841919e-01	89	none	NaN	NaN
 119	4	75	94	kitchen	sun_ahywdevtimnqcsln.tif	1360457.003680	1360457.262273	1360457.960885	7.843176e-01	84	none	NaN	NaN
 119	4	76	83	kitchen	sun_aeqdocilnnpuvuhx.tif	1360458.730390	1360458.988979	1360459.687597	8.343804e-01	73	none	NaN	NaN
 119	4	77	86	kitchen	sun_aggjlwcdjsjcaemh.tif	1360460.457096	1360460.715686	1360461.414386	6.675043e-01	76	none	NaN	NaN
 119	4	78	95	kitchen	sun_aixorpehvfykdynp.tif	1360462.183810	1360462.442394	1360463.141159	7.592862e-01	85	none	NaN	NaN
 119	4	79	74	kitchen	sun_acfmftudsenhrfhy.tif	1360463.910517	1360464.169110	1360464.867873	7.592862e-01	64	none	NaN	NaN
 119	4	80	77	kitchen	sun_acxkpeoqbwcxfvip.tif	1360465.637224	1360465.895813	1360466.594378	7.759738e-01	67	none	NaN	NaN
 119	4	81	79	kitchen	sun_admlmbcdswaszruo.tif	1360467.363935	1360467.622522	1360468.321289	7.926614e-01	69	none	NaN	NaN
 119	4	82	84	kitchen	sun_aexklacwqwezaorf.tif	1360469.090645	1360469.349235	1360470.047939	8.510680e-01	74	none	NaN	NaN
 119	4	83	88	kitchen	sun_agubuxuukhzyzpdp.tif	1360470.817353	1360471.075944	1360471.774604	7.926614e-01	78	none	NaN	NaN
 119	4	84	109	kitchen	sun_aypmqwcualkenuoe.tif	1360472.544062	1360472.802653	1360473.501359	8.427242e-01	99	none	NaN	NaN
 119	4	85	63	kitchen	labelme_rykdqxenmhulbdn.tif	1360474.270772	1360474.529364	1360475.228125	6.591605e-01	53	none	NaN	NaN
 119	4	86	101	kitchen	sun_aqeaevwwwjoqhzvl.tif	1360475.997481	1360476.256072	1360476.954756	8.343804e-01	91	none	NaN	NaN
 119	4	87	93	kitchen	sun_ahspylgoovwmwvgk.tif	1360477.724166	1360477.982781	1360478.681392	7.843176e-01	83	none	NaN	NaN
 119	4	88	81	kitchen	sun_aehawpgmrlhlvcow.tif	1360479.450901	1360479.776224	1360480.408142	7.342548e-01	71	none	NaN	NaN
 119	4	89	90	kitchen	sun_ahdycvpopffkzzsu.tif	1360481.177611	1360481.436196	1360482.134804	8.260366e-01	80	none	NaN	NaN
 119	4	90	98	kitchen	sun_akchetnepxlcxhsu.tif	1360482.904323	1360483.162905	1360483.861574	7.759738e-01	88	none	NaN	NaN
 119	4	91	69	kitchen	sun_abdenxonkemggwsq.tif	1360484.631027	1360484.889614	1360485.588291	6.925357e-01	59	none	NaN	NaN
 119	4	92	96	kitchen	sun_ajcbwwvdlsvjyzje.tif	1360486.357736	1360486.616330	1360487.314983	6.841919e-01	86	none	NaN	NaN
 119	4	93	75	kitchen	sun_acgtpgfybqjmzeyw.tif	1360488.084445	1360488.343031	1360489.041726	8.176928e-01	65	none	NaN	NaN
 119	4	94	76	kitchen	sun_acwjdupvyjsugpay.tif	1360489.811155	1360490.069749	1360490.768452	7.175671e-01	66	none	NaN	NaN
 119	4	95	104	kitchen	sun_auticobqsbwgoppi.tif	1360491.537864	1360491.796454	1360492.495081	8.010052e-01	94	none	NaN	NaN
 119	4	96	82	kitchen	sun_aenotlpyftoioydp.tif	1360493.264573	1360493.523167	1360494.221801	7.843176e-01	72	none	NaN	NaN
 119	4	97	61	kitchen	labelme_brsyyvweiuaazfr.tif	1360494.991279	1360495.249871	1360495.948608	7.008795e-01	51	none	NaN	NaN
 119	4	98	71	kitchen	sun_abftihopvusyfakt.tif	1360496.717993	1360496.976579	1360497.675215	6.591605e-01	61	none	NaN	NaN
 119	4	99	67	kitchen	sun_aarfiyshqohlwkmo.tif	1360498.444698	1360498.703286	1360499.401887	6.925357e-01	57	none	NaN	NaN
 119	4	100	100	kitchen	sun_amjjdeyrggfqgmom.tif	1360500.171410	1360500.429999	1360501.128731	7.509424e-01	90	none	NaN	NaN
 119	5	1	47	bathroom	sun_apynckhmoftszqoq.tif	1360510.314783	1360510.573374	1360511.280952	7.592862e-01	37	none	NaN	NaN
 119	5	2	55	bathroom	sun_avhrdrntsqrjzccq.tif	1360512.049829	1360512.308422	1360513.015484	6.508167e-01	45	39	1360514.001152	1
 119	5	3	45	bathroom	sun_apkxzenqapsujocq.tif	1360514.777531	1360515.036120	1360515.743076	7.425986e-01	35	none	NaN	NaN
 119	5	4	41	bathroom	sun_aoybiabnpadelefl.tif	1360516.512586	1360516.771178	1360517.478175	7.092233e-01	31	none	NaN	NaN
 119	5	5	21	bathroom	sun_aggnnqpdorgxpvce.tif	1360518.247637	1360518.506224	1360519.213232	7.175671e-01	11	none	NaN	NaN
 119	5	6	36	bathroom	sun_ambriybtogmepttm.tif	1360519.982688	1360520.241275	1360520.948254	8.510680e-01	26	none	NaN	NaN
 119	5	7	24	bathroom	sun_agrwbmhcpmfuwmsg.tif	1360521.717742	1360521.976330	1360522.683294	6.758481e-01	14	none	NaN	NaN
 119	5	8	37	bathroom	sun_amzlamotzwfkwjco.tif	1360523.452786	1360523.711377	1360524.418428	7.008795e-01	27	none	NaN	NaN
 119	5	9	20	bathroom	sun_afcoljnjfoxjtgja.tif	1360525.187839	1360525.446426	1360526.153378	7.259109e-01	10	none	NaN	NaN
 119	5	10	40	bathroom	sun_aofnryafpsjimzsb.tif	1360526.922891	1360527.181472	1360527.888481	7.509424e-01	30	none	NaN	NaN
 119	5	11	42	bathroom	sun_apeeialkgkuxddgh.tif	1360528.657941	1360528.916526	1360529.623450	8.093490e-01	32	none	NaN	NaN
 119	5	12	13	bathroom	sun_aavhrsfjbserjtht.tif	1360530.393008	1360530.651584	1360531.358536	8.176928e-01	3	none	NaN	NaN
 119	5	13	11	bathroom	labelme_sfxiulhjbhlyiyt.tif	1360532.128046	1360532.386629	1360533.093641	7.259109e-01	1	none	NaN	NaN
 119	5	14	34	bathroom	sun_alkosphxlxwjwgjd.tif	1360533.863094	1360534.121684	1360534.828640	6.591605e-01	24	37	1360535.857211	1
 119	5	15	51	bathroom	sun_atstyziqcmkahyxk.tif	1360536.632499	1360536.891092	1360537.598034	7.259109e-01	41	39	1360538.337335	1
 119	5	16	32	bathroom	sun_aleqenyvunhactkl.tif	1360539.109957	1360539.368545	1360540.075607	7.843176e-01	22	none	NaN	NaN
 119	5	17	26	bathroom	sun_ahaulkltgpkeeemi.tif	1360540.845002	1360541.103594	1360541.810640	7.926614e-01	16	none	NaN	NaN
 119	5	18	33	bathroom	sun_aljolscmmzydegqp.tif	1360542.580054	1360542.838642	1360543.545736	7.008795e-01	23	37	1360544.185257	1
 119	5	19	28	bathroom	sun_ahijqszoswveeyji.tif	1360544.957410	1360545.215998	1360545.923074	7.008795e-01	18	none	NaN	NaN
 119	5	20	19	bathroom	sun_aclfzgynxzxlbepz.tif	1360546.692460	1360546.951050	1360547.657981	7.592862e-01	9	none	NaN	NaN
 119	5	21	35	bathroom	sun_alotolagknyrgtsk.tif	1360548.427511	1360548.686099	1360549.393057	7.175671e-01	25	none	NaN	NaN
 119	5	22	58	bathroom	sun_axxbkopsgyouuebh.tif	1360550.162558	1360550.421150	1360551.128213	8.510680e-01	48	none	NaN	NaN
 119	5	23	27	bathroom	sun_ahcvzmoyaycdoftf.tif	1360551.897612	1360552.156202	1360552.863297	7.175671e-01	17	none	NaN	NaN
 119	5	24	23	bathroom	sun_aghyqhbptboemmoq.tif	1360553.632664	1360553.891252	1360554.598173	8.093490e-01	13	none	NaN	NaN
 119	5	25	56	bathroom	sun_awnqiikzaispgmwo.tif	1360555.367711	1360555.626299	1360556.333284	8.176928e-01	46	none	NaN	NaN
 119	5	26	15	bathroom	sun_abjtwfukuwddzted.tif	1360557.102760	1360557.361354	1360558.068391	7.425986e-01	5	none	NaN	NaN
 119	5	27	48	bathroom	sun_aqrpegblszgcoujh.tif	1360558.837818	1360559.096405	1360559.803414	8.427242e-01	38	none	NaN	NaN
 119	5	28	18	bathroom	sun_acgyywnybuveqsro.tif	1360560.572865	1360560.831450	1360561.538500	8.176928e-01	8	none	NaN	NaN
 119	5	29	60	bathroom	sun_azqyogdvyhahyram.tif	1360562.307918	1360562.566505	1360563.273563	8.010052e-01	50	none	NaN	NaN
 119	5	30	46	bathroom	sun_apmqjbnwghzuhhzh.tif	1360564.042961	1360564.301562	1360565.008535	6.758481e-01	36	none	NaN	NaN
 119	5	31	30	bathroom	sun_ajlawzvmubibwbpy.tif	1360565.778018	1360566.036608	1360566.743543	6.591605e-01	20	none	NaN	NaN
 119	5	32	31	bathroom	sun_akiytfaagpdsphgz.tif	1360567.513074	1360567.771658	1360568.478686	8.427242e-01	21	none	NaN	NaN
 119	5	33	16	bathroom	sun_acduarbnmmoglmiv.tif	1360569.248118	1360569.506712	1360570.213824	6.675043e-01	6	none	NaN	NaN
 119	5	34	29	bathroom	sun_ahqjwnzgolcaoidx.tif	1360570.983170	1360571.241759	1360571.948835	7.092233e-01	19	39	1360572.729227	1
 119	5	35	49	bathroom	sun_asfwthctfqerjvxr.tif	1360573.502329	1360573.760917	1360574.467951	7.676300e-01	39	none	NaN	NaN
 119	5	36	43	bathroom	sun_apjevzvycyhuqghb.tif	1360575.237382	1360575.495972	1360576.202883	8.010052e-01	33	none	NaN	NaN
 119	5	37	22	bathroom	sun_agguqiubmwhqqunb.tif	1360576.972433	1360577.231021	1360577.937948	7.008795e-01	12	none	NaN	NaN
 119	5	38	17	bathroom	sun_acegryoqftbzowsg.tif	1360578.707480	1360578.966071	1360579.673138	6.675043e-01	7	none	NaN	NaN
 119	5	39	44	bathroom	sun_apkruvsevgegsdwp.tif	1360580.442532	1360580.701125	1360581.408067	7.759738e-01	34	39	1360582.233151	1
 119	5	40	52	bathroom	sun_aunuadmjocsddsrl.tif	1360583.003398	1360583.261988	1360583.968887	8.010052e-01	42	none	NaN	NaN
 119	5	41	59	bathroom	sun_axyrejkiiaqiurjk.tif	1360584.738451	1360584.997041	1360585.704098	8.010052e-01	49	none	NaN	NaN
 119	5	42	53	bathroom	sun_ausgutylgojavyoq.tif	1360586.473504	1360586.732090	1360587.439166	7.092233e-01	43	none	NaN	NaN
 119	5	43	12	bathroom	sun_aapitsgbtktqubfy.tif	1360588.208553	1360588.467142	1360589.174232	6.591605e-01	2	none	NaN	NaN
 119	5	44	25	bathroom	sun_agyqfjcfkdcydepw.tif	1360589.943605	1360590.202192	1360590.909153	7.676300e-01	15	none	NaN	NaN
 119	5	45	14	bathroom	sun_abapwbhyhkfixyex.tif	1360591.678655	1360591.937243	1360592.644174	7.592862e-01	4	none	NaN	NaN
 119	5	46	54	bathroom	sun_auzqhkafidnkrwmo.tif	1360593.413708	1360593.672297	1360594.379323	8.093490e-01	44	none	NaN	NaN
 119	5	47	39	bathroom	sun_anryaplzeujmzfkd.tif	1360595.148760	1360595.407342	1360596.114280	7.843176e-01	29	none	NaN	NaN
 119	5	48	38	bathroom	sun_anhioqovhscjqqwb.tif	1360596.883805	1360597.142396	1360597.849350	6.758481e-01	28	none	NaN	NaN
 119	5	49	57	bathroom	sun_axldvoqbuvuggfmq.tif	1360598.618859	1360598.877451	1360599.584464	7.759738e-01	47	none	NaN	NaN
 119	5	50	50	bathroom	sun_aspsyogrekjtfozg.tif	1360600.353907	1360600.612497	1360601.319518	8.093490e-01	40	none	NaN	NaN
 119	5	51	50	bathroom	sun_aspsyogrekjtfozg.tif	1360602.088959	1360602.347551	1360603.054461	7.676300e-01	40	none	NaN	NaN
 119	5	52	58	bathroom	sun_axxbkopsgyouuebh.tif	1360603.824007	1360604.082604	1360604.789689	8.260366e-01	48	none	NaN	NaN
 119	5	53	13	bathroom	sun_aavhrsfjbserjtht.tif	1360605.559060	1360605.817645	1360606.524560	8.260366e-01	3	none	NaN	NaN
 119	5	54	28	bathroom	sun_ahijqszoswveeyji.tif	1360607.294116	1360607.552701	1360608.259683	7.425986e-01	18	none	NaN	NaN
 119	5	55	31	bathroom	sun_akiytfaagpdsphgz.tif	1360609.029164	1360609.287751	1360609.994649	7.509424e-01	21	none	NaN	NaN
 119	5	56	14	bathroom	sun_abapwbhyhkfixyex.tif	1360610.764212	1360611.022804	1360611.729880	8.343804e-01	4	none	NaN	NaN
 119	5	57	26	bathroom	sun_ahaulkltgpkeeemi.tif	1360612.499302	1360612.757854	1360613.464851	7.342548e-01	16	none	NaN	NaN
 119	5	58	45	bathroom	sun_apkxzenqapsujocq.tif	1360614.234321	1360614.492905	1360615.199809	8.176928e-01	35	none	NaN	NaN
 119	5	59	52	bathroom	sun_aunuadmjocsddsrl.tif	1360615.969365	1360616.227959	1360616.935070	7.843176e-01	42	none	NaN	NaN
 119	5	60	15	bathroom	sun_abjtwfukuwddzted.tif	1360617.704417	1360617.963007	1360618.669931	8.427242e-01	5	none	NaN	NaN
 119	5	61	42	bathroom	sun_apeeialkgkuxddgh.tif	1360619.439464	1360619.698058	1360620.404954	8.343804e-01	32	none	NaN	NaN
 119	5	62	32	bathroom	sun_aleqenyvunhactkl.tif	1360621.174514	1360621.433110	1360622.140023	8.343804e-01	22	none	NaN	NaN
 119	5	63	34	bathroom	sun_alkosphxlxwjwgjd.tif	1360622.909569	1360623.168158	1360623.875229	7.759738e-01	24	none	NaN	NaN
 119	5	64	16	bathroom	sun_acduarbnmmoglmiv.tif	1360624.644620	1360624.903205	1360625.610136	8.260366e-01	6	none	NaN	NaN
 119	5	65	44	bathroom	sun_apkruvsevgegsdwp.tif	1360626.379671	1360626.638263	1360627.345319	7.592862e-01	34	none	NaN	NaN
 119	5	66	36	bathroom	sun_ambriybtogmepttm.tif	1360628.114718	1360628.373312	1360629.080418	7.509424e-01	26	none	NaN	NaN
 119	5	67	27	bathroom	sun_ahcvzmoyaycdoftf.tif	1360629.849770	1360630.108361	1360630.815464	6.841919e-01	17	none	NaN	NaN
 119	5	68	33	bathroom	sun_aljolscmmzydegqp.tif	1360631.584821	1360631.843414	1360632.550409	8.176928e-01	23	39	1360633.352894	1
 119	5	69	49	bathroom	sun_asfwthctfqerjvxr.tif	1360634.129008	1360634.387595	1360635.094626	6.925357e-01	39	none	NaN	NaN
 119	5	70	46	bathroom	sun_apmqjbnwghzuhhzh.tif	1360635.864061	1360636.122646	1360636.829610	6.591605e-01	36	39	1360637.648912	1
 119	5	71	60	bathroom	sun_azqyogdvyhahyram.tif	1360638.424927	1360638.683512	1360639.390423	6.925357e-01	50	37	1360640.113059	1
 119	5	72	56	bathroom	sun_awnqiikzaispgmwo.tif	1360640.885695	1360641.144284	1360641.851333	8.343804e-01	46	none	NaN	NaN
 119	5	73	53	bathroom	sun_ausgutylgojavyoq.tif	1360642.620746	1360642.879336	1360643.586429	7.926614e-01	43	none	NaN	NaN
 119	5	74	12	bathroom	sun_aapitsgbtktqubfy.tif	1360644.355799	1360644.614385	1360645.321323	7.926614e-01	2	none	NaN	NaN
 119	5	75	38	bathroom	sun_anhioqovhscjqqwb.tif	1360646.090846	1360646.349441	1360647.056542	6.925357e-01	28	none	NaN	NaN
 119	5	76	47	bathroom	sun_apynckhmoftszqoq.tif	1360647.825896	1360648.084487	1360648.791556	6.925357e-01	37	none	NaN	NaN
 119	5	77	55	bathroom	sun_avhrdrntsqrjzccq.tif	1360649.560948	1360649.819536	1360650.526622	6.841919e-01	45	none	NaN	NaN
 119	5	78	29	bathroom	sun_ahqjwnzgolcaoidx.tif	1360651.296002	1360651.554585	1360652.261662	8.427242e-01	19	none	NaN	NaN
 119	5	79	20	bathroom	sun_afcoljnjfoxjtgja.tif	1360653.031046	1360653.289638	1360653.996630	7.843176e-01	10	37	1360654.881134	1
 119	5	80	59	bathroom	sun_axyrejkiiaqiurjk.tif	1360655.658646	1360655.917244	1360656.624214	6.508167e-01	49	none	NaN	NaN
 119	5	81	39	bathroom	sun_anryaplzeujmzfkd.tif	1360657.393704	1360657.652291	1360658.359339	7.259109e-01	29	none	NaN	NaN
 119	5	82	18	bathroom	sun_acgyywnybuveqsro.tif	1360659.128750	1360659.387339	1360660.094277	7.342548e-01	8	none	NaN	NaN
 119	5	83	21	bathroom	sun_aggnnqpdorgxpvce.tif	1360660.863806	1360661.122387	1360661.829421	7.092233e-01	11	none	NaN	NaN
 119	5	84	37	bathroom	sun_amzlamotzwfkwjco.tif	1360662.598855	1360662.857442	1360663.564404	7.175671e-01	27	39	1360664.465073	1
 119	5	85	11	bathroom	labelme_sfxiulhjbhlyiyt.tif	1360665.243137	1360665.501730	1360666.208806	7.342548e-01	1	37	1360666.993062	1
 119	5	86	35	bathroom	sun_alotolagknyrgtsk.tif	1360667.770641	1360668.029230	1360668.736259	7.509424e-01	25	37	1360669.345770	1
 119	5	87	30	bathroom	sun_ajlawzvmubibwbpy.tif	1360670.122966	1360670.381555	1360671.088610	7.676300e-01	20	none	NaN	NaN
 119	5	88	57	bathroom	sun_axldvoqbuvuggfmq.tif	1360671.858020	1360672.116610	1360672.823586	6.841919e-01	47	none	NaN	NaN
 119	5	89	22	bathroom	sun_agguqiubmwhqqunb.tif	1360673.593072	1360673.851654	1360674.558635	6.758481e-01	12	none	NaN	NaN
 119	5	90	19	bathroom	sun_aclfzgynxzxlbepz.tif	1360675.328117	1360675.586709	1360676.293774	7.342548e-01	9	none	NaN	NaN
 119	5	91	25	bathroom	sun_agyqfjcfkdcydepw.tif	1360677.063170	1360677.321758	1360678.028702	6.675043e-01	15	37	1360678.697307	1
 119	5	92	43	bathroom	sun_apjevzvycyhuqghb.tif	1360679.473888	1360679.732482	1360680.439466	6.675043e-01	33	none	NaN	NaN
 119	5	93	54	bathroom	sun_auzqhkafidnkrwmo.tif	1360681.208942	1360681.467531	1360682.174534	7.759738e-01	44	none	NaN	NaN
 119	5	94	51	bathroom	sun_atstyziqcmkahyxk.tif	1360682.943992	1360683.202579	1360683.909661	7.425986e-01	41	none	NaN	NaN
 119	5	95	24	bathroom	sun_agrwbmhcpmfuwmsg.tif	1360684.679045	1360684.937631	1360685.644712	6.841919e-01	14	none	NaN	NaN
 119	5	96	23	bathroom	sun_aghyqhbptboemmoq.tif	1360686.414093	1360686.672682	1360687.379756	6.925357e-01	13	39	1360688.625114	1
 119	5	97	40	bathroom	sun_aofnryafpsjimzsb.tif	1360689.400384	1360689.658973	1360690.366056	6.508167e-01	30	none	NaN	NaN
 119	5	98	41	bathroom	sun_aoybiabnpadelefl.tif	1360691.135435	1360691.394027	1360692.101007	7.509424e-01	31	none	NaN	NaN
 119	5	99	48	bathroom	sun_aqrpegblszgcoujh.tif	1360692.870483	1360693.129075	1360693.836019	7.926614e-01	38	none	NaN	NaN
 119	5	100	17	bathroom	sun_acegryoqftbzowsg.tif	1360694.605533	1360694.864124	1360695.571128	8.260366e-01	7	none	NaN	NaN
 119	6	1	64	kitchen	sun_aadbddgrdsjugojn.tif	1360710.220990	1360710.479584	1360711.220033	8.427242e-01	54	none	NaN	NaN
 119	6	2	81	kitchen	sun_aehawpgmrlhlvcow.tif	1360711.989407	1360712.248000	1360712.988279	7.092233e-01	71	none	NaN	NaN
 119	6	3	108	kitchen	sun_aymvwlarqodbwuoc.tif	1360713.757822	1360714.016452	1360714.756710	6.841919e-01	98	none	NaN	NaN
 119	6	4	65	kitchen	sun_aamedkxepzlwuxes.tif	1360715.526245	1360715.784835	1360716.525316	8.260366e-01	55	none	NaN	NaN
 119	6	5	87	kitchen	sun_agorklincwxrdtga.tif	1360717.294660	1360717.553249	1360718.293666	8.176928e-01	77	none	NaN	NaN
 119	6	6	90	kitchen	sun_ahdycvpopffkzzsu.tif	1360719.063078	1360719.321662	1360720.062151	7.509424e-01	80	none	NaN	NaN
 119	6	7	99	kitchen	sun_akcjzhbbjlbogpdi.tif	1360720.831497	1360721.090088	1360721.830492	7.676300e-01	89	39	1360722.512848	1
 119	6	8	93	kitchen	sun_ahspylgoovwmwvgk.tif	1360723.283925	1360723.542512	1360724.282995	7.008795e-01	83	none	NaN	NaN
 119	6	9	62	kitchen	labelme_kxvouciolcpqplr.tif	1360725.052339	1360725.310930	1360726.051382	6.675043e-01	52	none	NaN	NaN
 119	6	10	69	kitchen	sun_abdenxonkemggwsq.tif	1360726.820756	1360727.079347	1360727.819706	6.841919e-01	59	none	NaN	NaN
 119	6	11	98	kitchen	sun_akchetnepxlcxhsu.tif	1360728.589171	1360728.847758	1360729.588063	7.843176e-01	88	none	NaN	NaN
 119	6	12	106	kitchen	sun_awcpdzzznmweyyhv.tif	1360730.357593	1360730.616184	1360731.356535	7.926614e-01	96	none	NaN	NaN
 119	6	13	109	kitchen	sun_aypmqwcualkenuoe.tif	1360732.126010	1360732.384598	1360733.125087	6.925357e-01	99	none	NaN	NaN
 119	6	14	100	kitchen	sun_amjjdeyrggfqgmom.tif	1360733.894428	1360734.153019	1360734.893328	7.175671e-01	90	none	NaN	NaN
 119	6	15	89	kitchen	sun_agzzivivdpnawacl.tif	1360735.662844	1360735.921433	1360736.661875	8.260366e-01	79	none	NaN	NaN
 119	6	16	103	kitchen	sun_aunzlwrbjumxhwdj.tif	1360737.431259	1360737.689845	1360738.430333	6.925357e-01	93	none	NaN	NaN
 119	6	17	78	kitchen	sun_adgqasybjyktddhj.tif	1360739.199675	1360739.458265	1360740.198644	8.343804e-01	68	none	NaN	NaN
 119	6	18	68	kitchen	sun_aaxxjlsuzvqlgylf.tif	1360740.968092	1360741.226682	1360741.967128	8.260366e-01	58	none	NaN	NaN
 119	6	19	71	kitchen	sun_abftihopvusyfakt.tif	1360742.736508	1360742.995104	1360743.735472	7.092233e-01	61	none	NaN	NaN
 119	6	20	105	kitchen	sun_avszsnwsbuqfgzbn.tif	1360744.504928	1360744.763521	1360745.503980	6.508167e-01	95	37	1360746.321033	0
 119	6	21	73	kitchen	sun_abrcnpqqhmjwekyf.tif	1360747.099161	1360747.357751	1360748.098271	7.592862e-01	63	none	NaN	NaN
 119	6	22	67	kitchen	sun_aarfiyshqohlwkmo.tif	1360748.867579	1360749.126171	1360749.866537	7.759738e-01	57	none	NaN	NaN
 119	6	23	86	kitchen	sun_aggjlwcdjsjcaemh.tif	1360750.635998	1360750.894587	1360751.635061	8.010052e-01	76	none	NaN	NaN
 119	6	24	74	kitchen	sun_acfmftudsenhrfhy.tif	1360752.404416	1360752.663007	1360753.403495	6.591605e-01	64	none	NaN	NaN
 119	6	25	66	kitchen	sun_aapllqyqlykszopd.tif	1360754.172828	1360754.431421	1360755.171879	7.175671e-01	56	none	NaN	NaN
 119	6	26	95	kitchen	sun_aixorpehvfykdynp.tif	1360755.941247	1360756.199836	1360756.940257	7.592862e-01	85	none	NaN	NaN
 119	6	27	70	kitchen	sun_abdxkyyxwfskuaqb.tif	1360757.709669	1360757.968262	1360758.708644	8.343804e-01	60	39	1360759.473042	1
 119	6	28	75	kitchen	sun_acgtpgfybqjmzeyw.tif	1360760.245507	1360760.504100	1360761.244519	8.427242e-01	65	none	NaN	NaN
 119	6	29	94	kitchen	sun_ahywdevtimnqcsln.tif	1360762.013930	1360762.272514	1360763.012991	7.425986e-01	84	none	NaN	NaN
 119	6	30	85	kitchen	sun_afuyedyxivkhecmu.tif	1360763.782343	1360764.040932	1360764.781385	7.843176e-01	75	none	NaN	NaN
 119	6	31	107	kitchen	sun_axyyrmzcupyhlivc.tif	1360765.550760	1360765.809350	1360766.549780	8.176928e-01	97	none	NaN	NaN
 119	6	32	91	kitchen	sun_ahljzhgcdpomplvg.tif	1360767.319180	1360767.577764	1360768.318046	7.259109e-01	81	none	NaN	NaN
 119	6	33	96	kitchen	sun_ajcbwwvdlsvjyzje.tif	1360769.087596	1360769.346182	1360770.086545	7.759738e-01	86	39	1360770.945031	1
 119	6	34	82	kitchen	sun_aenotlpyftoioydp.tif	1360771.723541	1360771.982127	1360772.722532	7.509424e-01	72	37	1360773.400933	1
 119	6	35	102	kitchen	sun_auaiucuqpdausiva.tif	1360774.175950	1360774.434554	1360775.174884	8.010052e-01	92	37	1360775.936818	1
 119	6	36	72	kitchen	sun_abpwyqmlzafvklqo.tif	1360776.711810	1360776.970394	1360777.710801	7.259109e-01	62	none	NaN	NaN
 119	6	37	84	kitchen	sun_aexklacwqwezaorf.tif	1360778.480217	1360778.738814	1360779.479080	7.676300e-01	74	39	1360780.209005	1
 119	6	38	101	kitchen	sun_aqeaevwwwjoqhzvl.tif	1360780.982706	1360781.241292	1360781.981579	7.676300e-01	91	none	NaN	NaN
 119	6	39	110	kitchen	sun_azmutvzbxypaceni.tif	1360782.751121	1360783.009706	1360783.750011	6.591605e-01	100	none	NaN	NaN
 119	6	40	83	kitchen	sun_aeqdocilnnpuvuhx.tif	1360784.519538	1360784.778125	1360785.518527	8.010052e-01	73	none	NaN	NaN
 119	6	41	77	kitchen	sun_acxkpeoqbwcxfvip.tif	1360786.287951	1360786.546544	1360787.286933	8.176928e-01	67	none	NaN	NaN
 119	6	42	63	kitchen	labelme_rykdqxenmhulbdn.tif	1360788.056371	1360788.314962	1360789.055333	6.508167e-01	53	none	NaN	NaN
 119	6	43	80	kitchen	sun_aegoxogugdkwpmpj.tif	1360789.824786	1360790.083378	1360790.823763	7.092233e-01	70	none	NaN	NaN
 119	6	44	79	kitchen	sun_admlmbcdswaszruo.tif	1360791.593210	1360791.851796	1360792.592143	7.926614e-01	69	37	1360793.280968	1
 119	6	45	61	kitchen	labelme_brsyyvweiuaazfr.tif	1360794.053977	1360794.312563	1360795.052850	7.008795e-01	51	none	NaN	NaN
 119	6	46	97	kitchen	sun_ajkqhtgcbgpcwrwn.tif	1360795.822391	1360796.080977	1360796.821340	7.092233e-01	87	none	NaN	NaN
 119	6	47	88	kitchen	sun_agubuxuukhzyzpdp.tif	1360797.590807	1360797.849396	1360798.589710	7.342548e-01	78	none	NaN	NaN
 119	6	48	104	kitchen	sun_auticobqsbwgoppi.tif	1360799.359224	1360799.617815	1360800.358107	7.759738e-01	94	none	NaN	NaN
 119	6	49	76	kitchen	sun_acwjdupvyjsugpay.tif	1360801.127643	1360801.386233	1360802.126610	7.592862e-01	66	none	NaN	NaN
 119	6	50	92	kitchen	sun_ahpczsiumwwocjkv.tif	1360802.896061	1360803.154654	1360803.895073	7.175671e-01	82	none	NaN	NaN
 119	6	51	105	kitchen	sun_avszsnwsbuqfgzbn.tif	1360804.664477	1360804.923066	1360805.663520	8.260366e-01	95	none	NaN	NaN
 119	6	52	92	kitchen	sun_ahpczsiumwwocjkv.tif	1360806.432897	1360806.691483	1360807.431968	8.343804e-01	82	none	NaN	NaN
 119	6	53	83	kitchen	sun_aeqdocilnnpuvuhx.tif	1360808.201313	1360808.459902	1360809.200244	7.342548e-01	73	none	NaN	NaN
 119	6	54	94	kitchen	sun_ahywdevtimnqcsln.tif	1360809.969724	1360810.228317	1360810.968624	8.093490e-01	84	none	NaN	NaN
 119	6	55	101	kitchen	sun_aqeaevwwwjoqhzvl.tif	1360811.738147	1360811.996738	1360812.737027	7.008795e-01	91	none	NaN	NaN
 119	6	56	81	kitchen	sun_aehawpgmrlhlvcow.tif	1360813.506562	1360813.765151	1360814.505538	6.841919e-01	71	none	NaN	NaN
 119	6	57	87	kitchen	sun_agorklincwxrdtga.tif	1360815.274977	1360815.533570	1360816.274019	8.093490e-01	77	none	NaN	NaN
 119	6	58	89	kitchen	sun_agzzivivdpnawacl.tif	1360817.043395	1360817.301987	1360818.042414	7.259109e-01	79	none	NaN	NaN
 119	6	59	74	kitchen	sun_acfmftudsenhrfhy.tif	1360818.811811	1360819.070408	1360819.810741	8.010052e-01	64	none	NaN	NaN
 119	6	60	67	kitchen	sun_aarfiyshqohlwkmo.tif	1360820.580231	1360820.838817	1360821.579230	6.925357e-01	57	none	NaN	NaN
 119	6	61	63	kitchen	labelme_rykdqxenmhulbdn.tif	1360822.348648	1360822.607236	1360823.347699	6.675043e-01	53	none	NaN	NaN
 119	6	62	84	kitchen	sun_aexklacwqwezaorf.tif	1360824.117064	1360824.375653	1360825.115932	6.591605e-01	74	none	NaN	NaN
 119	6	63	103	kitchen	sun_aunzlwrbjumxhwdj.tif	1360825.885482	1360826.144072	1360826.884347	6.925357e-01	93	37	1360827.512969	1
 119	6	64	91	kitchen	sun_ahljzhgcdpomplvg.tif	1360828.287857	1360828.546447	1360829.286915	6.925357e-01	81	none	NaN	NaN
 119	6	65	62	kitchen	labelme_kxvouciolcpqplr.tif	1360830.056281	1360830.314864	1360831.055209	7.425986e-01	52	39	1360832.001112	1
 119	6	66	106	kitchen	sun_awcpdzzznmweyyhv.tif	1360832.775634	1360833.034223	1360833.774608	6.675043e-01	96	none	NaN	NaN
 119	6	67	68	kitchen	sun_aaxxjlsuzvqlgylf.tif	1360834.544053	1360834.802643	1360835.543113	7.509424e-01	58	none	NaN	NaN
 119	6	68	65	kitchen	sun_aamedkxepzlwuxes.tif	1360836.312472	1360836.571062	1360837.311490	7.342548e-01	55	none	NaN	NaN
 119	6	69	96	kitchen	sun_ajcbwwvdlsvjyzje.tif	1360838.080889	1360838.339478	1360839.079864	7.008795e-01	86	none	NaN	NaN
 119	6	70	110	kitchen	sun_azmutvzbxypaceni.tif	1360839.849304	1360840.107891	1360840.848192	8.427242e-01	100	none	NaN	NaN
 119	6	71	77	kitchen	sun_acxkpeoqbwcxfvip.tif	1360841.617717	1360841.876313	1360842.616786	8.510680e-01	67	39	1360843.464963	1
 119	6	72	86	kitchen	sun_aggjlwcdjsjcaemh.tif	1360844.237001	1360844.495569	1360845.235924	7.926614e-01	76	none	NaN	NaN
 119	6	73	64	kitchen	sun_aadbddgrdsjugojn.tif	1360846.005397	1360846.263986	1360847.004268	6.758481e-01	54	none	NaN	NaN
 119	6	74	76	kitchen	sun_acwjdupvyjsugpay.tif	1360847.773815	1360848.032401	1360848.772677	8.176928e-01	66	none	NaN	NaN
 119	6	75	104	kitchen	sun_auticobqsbwgoppi.tif	1360849.542233	1360849.800822	1360850.541296	8.510680e-01	94	none	NaN	NaN
 119	6	76	95	kitchen	sun_aixorpehvfykdynp.tif	1360851.310647	1360851.569238	1360852.309532	7.509424e-01	85	none	NaN	NaN
 119	6	77	109	kitchen	sun_aypmqwcualkenuoe.tif	1360853.079066	1360853.337654	1360854.078136	8.343804e-01	99	none	NaN	NaN
 119	6	78	108	kitchen	sun_aymvwlarqodbwuoc.tif	1360854.847481	1360855.106073	1360855.846526	6.758481e-01	98	37	1360857.056975	1
 119	6	79	100	kitchen	sun_amjjdeyrggfqgmom.tif	1360857.833777	1360858.092366	1360858.832833	7.592862e-01	90	none	NaN	NaN
 119	6	80	99	kitchen	sun_akcjzhbbjlbogpdi.tif	1360859.602193	1360859.860775	1360860.601238	6.591605e-01	89	none	NaN	NaN
 119	6	81	70	kitchen	sun_abdxkyyxwfskuaqb.tif	1360861.370609	1360861.629197	1360862.369531	7.175671e-01	60	none	NaN	NaN
 119	6	82	75	kitchen	sun_acgtpgfybqjmzeyw.tif	1360863.139021	1360863.397628	1360864.138067	6.675043e-01	65	37	1360864.904992	1
 119	6	83	90	kitchen	sun_ahdycvpopffkzzsu.tif	1360865.683209	1360865.941801	1360866.682202	6.758481e-01	80	none	NaN	NaN
 119	6	84	97	kitchen	sun_ajkqhtgcbgpcwrwn.tif	1360867.451626	1360867.710217	1360868.450588	6.841919e-01	87	none	NaN	NaN
 119	6	85	88	kitchen	sun_agubuxuukhzyzpdp.tif	1360869.220042	1360869.478627	1360870.218939	6.508167e-01	78	none	NaN	NaN
 119	6	86	80	kitchen	sun_aegoxogugdkwpmpj.tif	1360870.988456	1360871.247051	1360871.987390	8.093490e-01	70	none	NaN	NaN
 119	6	87	82	kitchen	sun_aenotlpyftoioydp.tif	1360872.756879	1360873.015471	1360873.755895	7.259109e-01	72	none	NaN	NaN
 119	6	88	102	kitchen	sun_auaiucuqpdausiva.tif	1360874.525296	1360874.783879	1360875.524321	7.926614e-01	92	39	1360876.384894	1
 119	6	89	66	kitchen	sun_aapllqyqlykszopd.tif	1360877.161240	1360877.419826	1360878.160123	7.843176e-01	56	none	NaN	NaN
 119	6	90	78	kitchen	sun_adgqasybjyktddhj.tif	1360878.929656	1360879.188244	1360879.928710	8.093490e-01	68	none	NaN	NaN
 119	6	91	61	kitchen	labelme_brsyyvweiuaazfr.tif	1360880.698071	1360880.956665	1360881.697123	8.176928e-01	51	none	NaN	NaN
 119	6	92	79	kitchen	sun_admlmbcdswaszruo.tif	1360882.466483	1360882.725073	1360883.465422	8.427242e-01	69	37	1360884.216846	1
 119	6	93	73	kitchen	sun_abrcnpqqhmjwekyf.tif	1360884.993990	1360885.252580	1360885.992908	7.676300e-01	63	none	NaN	NaN
 119	6	94	69	kitchen	sun_abdenxonkemggwsq.tif	1360886.762407	1360887.020997	1360887.761368	6.758481e-01	59	none	NaN	NaN
 119	6	95	98	kitchen	sun_akchetnepxlcxhsu.tif	1360888.530826	1360888.789416	1360889.529881	7.759738e-01	88	none	NaN	NaN
 119	6	96	107	kitchen	sun_axyyrmzcupyhlivc.tif	1360890.299242	1360890.557830	1360891.298205	7.843176e-01	97	none	NaN	NaN
 119	6	97	71	kitchen	sun_abftihopvusyfakt.tif	1360892.067654	1360892.326247	1360893.066623	7.509424e-01	61	none	NaN	NaN
 119	6	98	85	kitchen	sun_afuyedyxivkhecmu.tif	1360893.836074	1360894.094671	1360894.835127	7.342548e-01	75	none	NaN	NaN
 119	6	99	93	kitchen	sun_ahspylgoovwmwvgk.tif	1360895.604495	1360895.863078	1360896.603406	7.425986e-01	83	none	NaN	NaN
 119	6	100	72	kitchen	sun_abpwyqmlzafvklqo.tif	1360897.372908	1360897.631497	1360898.371782	7.425986e-01	62	none	NaN	NaN
 119	7	1	30	bathroom	sun_ajlawzvmubibwbpy.tif	1360920.962928	1360921.221517	1360921.911908	6.675043e-01	20	37	1360922.728705	1
 119	7	2	24	bathroom	sun_agrwbmhcpmfuwmsg.tif	1360923.507111	1360923.765698	1360924.456017	7.425986e-01	14	none	NaN	NaN
 119	7	3	18	bathroom	sun_acgyywnybuveqsro.tif	1360925.225476	1360925.484072	1360926.174507	7.676300e-01	8	none	NaN	NaN
 119	7	4	11	bathroom	labelme_sfxiulhjbhlyiyt.tif	1360926.943846	1360927.202439	1360927.892764	7.509424e-01	1	none	NaN	NaN
 119	7	5	36	bathroom	sun_ambriybtogmepttm.tif	1360928.662211	1360928.920802	1360929.611045	7.843176e-01	26	none	NaN	NaN
 119	7	6	59	bathroom	sun_axyrejkiiaqiurjk.tif	1360930.380583	1360930.639172	1360931.329404	8.010052e-01	49	39	1360932.112975	1
 119	7	7	41	bathroom	sun_aoybiabnpadelefl.tif	1360932.891402	1360933.149992	1360933.840310	7.008795e-01	31	none	NaN	NaN
 119	7	8	27	bathroom	sun_ahcvzmoyaycdoftf.tif	1360934.609771	1360934.868357	1360935.558714	7.342548e-01	17	none	NaN	NaN
 119	7	9	33	bathroom	sun_aljolscmmzydegqp.tif	1360936.328141	1360936.586721	1360937.277156	7.425986e-01	23	none	NaN	NaN
 119	7	10	19	bathroom	sun_aclfzgynxzxlbepz.tif	1360938.046504	1360938.305091	1360938.995403	6.758481e-01	9	none	NaN	NaN
 119	7	11	50	bathroom	sun_aspsyogrekjtfozg.tif	1360939.764866	1360940.023459	1360940.713665	7.509424e-01	40	none	NaN	NaN
 119	7	12	25	bathroom	sun_agyqfjcfkdcydepw.tif	1360941.483240	1360941.741827	1360942.432358	6.508167e-01	15	37	1360943.152848	1
 119	7	13	48	bathroom	sun_aqrpegblszgcoujh.tif	1360943.927328	1360944.185911	1360944.876183	8.010052e-01	38	none	NaN	NaN
 119	7	14	52	bathroom	sun_aunuadmjocsddsrl.tif	1360945.645692	1360945.904282	1360946.594679	8.343804e-01	42	none	NaN	NaN
 119	7	15	45	bathroom	sun_apkxzenqapsujocq.tif	1360947.364058	1360947.622649	1360948.313070	7.926614e-01	35	none	NaN	NaN
 119	7	16	54	bathroom	sun_auzqhkafidnkrwmo.tif	1360949.082424	1360949.341017	1360950.031228	6.841919e-01	44	none	NaN	NaN
 119	7	17	43	bathroom	sun_apjevzvycyhuqghb.tif	1360950.800798	1360951.059384	1360951.749755	6.925357e-01	33	37	1360952.624970	1
 119	7	18	23	bathroom	sun_aghyqhbptboemmoq.tif	1360953.403372	1360953.661960	1360954.352368	7.592862e-01	13	none	NaN	NaN
 119	7	19	57	bathroom	sun_axldvoqbuvuggfmq.tif	1360955.121743	1360955.380329	1360956.070611	7.509424e-01	47	none	NaN	NaN
 119	7	20	13	bathroom	sun_aavhrsfjbserjtht.tif	1360956.840109	1360957.098697	1360957.789058	8.176928e-01	3	none	NaN	NaN
 119	7	21	28	bathroom	sun_ahijqszoswveeyji.tif	1360958.558470	1360958.817058	1360959.507310	7.342548e-01	18	39	1360960.344864	1
 119	7	22	51	bathroom	sun_atstyziqcmkahyxk.tif	1360961.119341	1360961.377934	1360962.068229	7.259109e-01	41	none	NaN	NaN
 119	7	23	55	bathroom	sun_avhrdrntsqrjzccq.tif	1360962.837713	1360963.096298	1360963.786582	7.092233e-01	45	none	NaN	NaN
 119	7	24	40	bathroom	sun_aofnryafpsjimzsb.tif	1360964.556078	1360964.814669	1360965.504942	6.925357e-01	30	none	NaN	NaN
 119	7	25	44	bathroom	sun_apkruvsevgegsdwp.tif	1360966.274449	1360966.533033	1360967.223918	8.093490e-01	34	none	NaN	NaN
 119	7	26	42	bathroom	sun_apeeialkgkuxddgh.tif	1360967.992806	1360968.251400	1360968.941808	8.176928e-01	32	none	NaN	NaN
 119	7	27	20	bathroom	sun_afcoljnjfoxjtgja.tif	1360969.711180	1360969.969771	1360970.660061	7.175671e-01	10	none	NaN	NaN
 119	7	28	17	bathroom	sun_acegryoqftbzowsg.tif	1360971.429553	1360971.688141	1360972.378464	8.260366e-01	7	none	NaN	NaN
 119	7	29	37	bathroom	sun_amzlamotzwfkwjco.tif	1360973.147915	1360973.406505	1360974.096912	6.925357e-01	27	none	NaN	NaN
 119	7	30	16	bathroom	sun_acduarbnmmoglmiv.tif	1360974.866278	1360975.124877	1360975.815230	6.841919e-01	6	none	NaN	NaN
 119	7	31	34	bathroom	sun_alkosphxlxwjwgjd.tif	1360976.584649	1360976.843244	1360977.533493	8.343804e-01	24	none	NaN	NaN
 119	7	32	49	bathroom	sun_asfwthctfqerjvxr.tif	1360978.303020	1360978.561607	1360979.252009	7.676300e-01	39	none	NaN	NaN
 119	7	33	31	bathroom	sun_akiytfaagpdsphgz.tif	1360980.021386	1360980.279977	1360980.970185	7.926614e-01	21	none	NaN	NaN
 119	7	34	53	bathroom	sun_ausgutylgojavyoq.tif	1360981.739755	1360981.998346	1360982.688744	7.092233e-01	43	39	1360984.744869	1
 119	7	35	39	bathroom	sun_anryaplzeujmzfkd.tif	1360985.518436	1360985.777084	1360986.467362	8.427242e-01	29	none	NaN	NaN
 119	7	36	21	bathroom	sun_aggnnqpdorgxpvce.tif	1360987.236862	1360987.495452	1360988.185873	7.926614e-01	11	39	1360989.184887	1
 119	7	37	56	bathroom	sun_awnqiikzaispgmwo.tif	1360989.956220	1360990.214810	1360990.905068	7.342548e-01	46	none	NaN	NaN
 119	7	38	14	bathroom	sun_abapwbhyhkfixyex.tif	1360991.674588	1360991.933175	1360992.623526	8.176928e-01	4	none	NaN	NaN
 119	7	39	60	bathroom	sun_azqyogdvyhahyram.tif	1360993.392958	1360993.651543	1360994.341829	7.592862e-01	50	none	NaN	NaN
 119	7	40	38	bathroom	sun_anhioqovhscjqqwb.tif	1360995.111325	1360995.369917	1360996.060193	8.176928e-01	28	none	NaN	NaN
 119	7	41	47	bathroom	sun_apynckhmoftszqoq.tif	1360996.829689	1360997.088285	1360997.778533	6.508167e-01	37	none	NaN	NaN
 119	7	42	12	bathroom	sun_aapitsgbtktqubfy.tif	1360998.548058	1360998.806649	1360999.496871	8.010052e-01	2	none	NaN	NaN
 119	7	43	22	bathroom	sun_agguqiubmwhqqunb.tif	1361000.266431	1361000.525015	1361001.215373	7.425986e-01	12	37	1361002.176771	1
 119	7	44	46	bathroom	sun_apmqjbnwghzuhhzh.tif	1361002.952418	1361003.211008	1361003.901407	8.343804e-01	36	none	NaN	NaN
 119	7	45	58	bathroom	sun_axxbkopsgyouuebh.tif	1361004.670790	1361004.929375	1361005.619709	8.260366e-01	48	none	NaN	NaN
 119	7	46	35	bathroom	sun_alotolagknyrgtsk.tif	1361006.389154	1361006.647739	1361007.338023	8.427242e-01	25	none	NaN	NaN
 119	7	47	26	bathroom	sun_ahaulkltgpkeeemi.tif	1361008.107515	1361008.366113	1361009.056380	8.093490e-01	16	none	NaN	NaN
 119	7	48	29	bathroom	sun_ahqjwnzgolcaoidx.tif	1361009.825890	1361010.084484	1361010.774689	6.675043e-01	19	none	NaN	NaN
 119	7	49	32	bathroom	sun_aleqenyvunhactkl.tif	1361011.544252	1361011.802848	1361012.493057	7.592862e-01	22	none	NaN	NaN
 119	7	50	15	bathroom	sun_abjtwfukuwddzted.tif	1361013.262624	1361013.521211	1361014.211480	6.591605e-01	5	none	NaN	NaN
 119	7	51	16	bathroom	sun_acduarbnmmoglmiv.tif	1361014.980988	1361015.239581	1361015.929817	7.175671e-01	6	none	NaN	NaN
 119	7	52	53	bathroom	sun_ausgutylgojavyoq.tif	1361016.699362	1361016.957949	1361017.648380	8.343804e-01	43	none	NaN	NaN
 119	7	53	23	bathroom	sun_aghyqhbptboemmoq.tif	1361018.417726	1361018.676316	1361019.366662	7.759738e-01	13	none	NaN	NaN
 119	7	54	17	bathroom	sun_acegryoqftbzowsg.tif	1361020.136093	1361020.394681	1361021.084905	6.675043e-01	7	none	NaN	NaN
 119	7	55	32	bathroom	sun_aleqenyvunhactkl.tif	1361021.854463	1361022.113048	1361022.803325	8.427242e-01	22	37	1361023.520883	1
 119	7	56	37	bathroom	sun_amzlamotzwfkwjco.tif	1361024.298544	1361024.557133	1361025.247401	8.093490e-01	27	none	NaN	NaN
 119	7	57	59	bathroom	sun_axyrejkiiaqiurjk.tif	1361026.016917	1361026.275508	1361026.965881	7.509424e-01	49	39	1361027.680822	1
 119	7	58	41	bathroom	sun_aoybiabnpadelefl.tif	1361028.452661	1361028.711245	1361029.401643	7.008795e-01	31	none	NaN	NaN
 119	7	59	26	bathroom	sun_ahaulkltgpkeeemi.tif	1361030.171027	1361030.429621	1361031.119887	8.093490e-01	16	none	NaN	NaN
 119	7	60	55	bathroom	sun_avhrdrntsqrjzccq.tif	1361031.889400	1361032.147984	1361032.838417	6.758481e-01	45	none	NaN	NaN
 119	7	61	40	bathroom	sun_aofnryafpsjimzsb.tif	1361033.607767	1361033.866354	1361034.556725	7.342548e-01	30	none	NaN	NaN
 119	7	62	33	bathroom	sun_aljolscmmzydegqp.tif	1361035.326129	1361035.584720	1361036.275080	6.925357e-01	23	none	NaN	NaN
 119	7	63	24	bathroom	sun_agrwbmhcpmfuwmsg.tif	1361037.044494	1361037.303090	1361037.993314	7.592862e-01	14	none	NaN	NaN
 119	7	64	39	bathroom	sun_anryaplzeujmzfkd.tif	1361038.762869	1361039.021455	1361039.711752	8.510680e-01	29	none	NaN	NaN
 119	7	65	38	bathroom	sun_anhioqovhscjqqwb.tif	1361040.481236	1361040.739823	1361041.430243	6.591605e-01	28	none	NaN	NaN
 119	7	66	15	bathroom	sun_abjtwfukuwddzted.tif	1361042.199604	1361042.458190	1361043.148600	6.758481e-01	5	none	NaN	NaN
 119	7	67	42	bathroom	sun_apeeialkgkuxddgh.tif	1361043.917970	1361044.176561	1361044.866971	7.843176e-01	32	none	NaN	NaN
 119	7	68	11	bathroom	labelme_sfxiulhjbhlyiyt.tif	1361045.636338	1361045.894924	1361046.585304	8.510680e-01	1	none	NaN	NaN
 119	7	69	12	bathroom	sun_aapitsgbtktqubfy.tif	1361047.354706	1361047.613292	1361048.303569	6.841919e-01	2	none	NaN	NaN
 119	7	70	43	bathroom	sun_apjevzvycyhuqghb.tif	1361049.073068	1361049.331660	1361050.022052	7.259109e-01	33	none	NaN	NaN
 119	7	71	47	bathroom	sun_apynckhmoftszqoq.tif	1361050.791434	1361051.050031	1361051.740436	8.010052e-01	37	37	1361052.392823	1
 119	7	72	34	bathroom	sun_alkosphxlxwjwgjd.tif	1361053.168793	1361053.427384	1361054.117677	7.509424e-01	24	none	NaN	NaN
 119	7	73	30	bathroom	sun_ajlawzvmubibwbpy.tif	1361054.887161	1361055.145749	1361055.836146	7.175671e-01	20	none	NaN	NaN
 119	7	74	56	bathroom	sun_awnqiikzaispgmwo.tif	1361056.605526	1361056.864115	1361057.554523	6.591605e-01	46	none	NaN	NaN
 119	7	75	36	bathroom	sun_ambriybtogmepttm.tif	1361058.323892	1361058.582487	1361059.272797	8.176928e-01	26	none	NaN	NaN
 119	7	76	46	bathroom	sun_apmqjbnwghzuhhzh.tif	1361060.042259	1361060.300847	1361060.991185	6.675043e-01	36	none	NaN	NaN
 119	7	77	14	bathroom	sun_abapwbhyhkfixyex.tif	1361061.760631	1361062.019219	1361062.709436	7.759738e-01	4	none	NaN	NaN
 119	7	78	19	bathroom	sun_aclfzgynxzxlbepz.tif	1361063.478996	1361063.737587	1361064.427795	6.925357e-01	9	none	NaN	NaN
 119	7	79	25	bathroom	sun_agyqfjcfkdcydepw.tif	1361065.197365	1361065.455953	1361066.146171	7.008795e-01	15	none	NaN	NaN
 119	7	80	13	bathroom	sun_aavhrsfjbserjtht.tif	1361066.915738	1361067.174322	1361067.864728	7.259109e-01	3	none	NaN	NaN
 119	7	81	60	bathroom	sun_azqyogdvyhahyram.tif	1361068.634097	1361068.892692	1361069.582975	7.425986e-01	50	none	NaN	NaN
 119	7	82	50	bathroom	sun_aspsyogrekjtfozg.tif	1361070.352465	1361070.611060	1361071.301302	6.508167e-01	40	39	1361072.200900	1
 119	7	83	22	bathroom	sun_agguqiubmwhqqunb.tif	1361072.971729	1361073.230320	1361073.920547	6.591605e-01	12	none	NaN	NaN
 119	7	84	20	bathroom	sun_afcoljnjfoxjtgja.tif	1361074.690090	1361074.948686	1361075.638996	8.260366e-01	10	none	NaN	NaN
 119	7	85	18	bathroom	sun_acgyywnybuveqsro.tif	1361076.408461	1361076.667054	1361077.357469	6.758481e-01	8	none	NaN	NaN
 119	7	86	58	bathroom	sun_axxbkopsgyouuebh.tif	1361078.126828	1361078.385419	1361079.075738	7.759738e-01	48	none	NaN	NaN
 119	7	87	35	bathroom	sun_alotolagknyrgtsk.tif	1361079.845199	1361080.103787	1361080.794021	7.259109e-01	25	none	NaN	NaN
 119	7	88	44	bathroom	sun_apkruvsevgegsdwp.tif	1361081.563560	1361081.822151	1361082.512376	7.008795e-01	34	none	NaN	NaN
 119	7	89	48	bathroom	sun_aqrpegblszgcoujh.tif	1361083.281931	1361083.540524	1361084.230811	7.843176e-01	38	none	NaN	NaN
 119	7	90	45	bathroom	sun_apkxzenqapsujocq.tif	1361085.000301	1361085.258892	1361085.949312	7.843176e-01	35	none	NaN	NaN
 119	7	91	57	bathroom	sun_axldvoqbuvuggfmq.tif	1361086.718666	1361086.977255	1361087.667595	7.092233e-01	47	39	1361089.568858	1
 119	7	92	51	bathroom	sun_atstyziqcmkahyxk.tif	1361090.347258	1361090.605850	1361091.296224	7.175671e-01	41	none	NaN	NaN
 119	7	93	31	bathroom	sun_akiytfaagpdsphgz.tif	1361092.065631	1361092.324217	1361093.014493	7.926614e-01	21	none	NaN	NaN
 119	7	94	29	bathroom	sun_ahqjwnzgolcaoidx.tif	1361093.783995	1361094.042581	1361094.732919	8.260366e-01	19	none	NaN	NaN
 119	7	95	54	bathroom	sun_auzqhkafidnkrwmo.tif	1361095.502360	1361095.760953	1361096.451187	8.427242e-01	44	37	1361097.144895	1
 119	7	96	49	bathroom	sun_asfwthctfqerjvxr.tif	1361097.921422	1361098.180007	1361098.870379	7.759738e-01	39	none	NaN	NaN
 119	7	97	52	bathroom	sun_aunuadmjocsddsrl.tif	1361099.639782	1361099.898375	1361100.588635	7.676300e-01	42	none	NaN	NaN
 119	7	98	28	bathroom	sun_ahijqszoswveeyji.tif	1361101.358159	1361101.616749	1361102.307059	6.841919e-01	18	none	NaN	NaN
 119	7	99	21	bathroom	sun_aggnnqpdorgxpvce.tif	1361103.076524	1361103.335114	1361104.025393	7.092233e-01	11	37	1361104.736884	1
 119	7	100	27	bathroom	sun_ahcvzmoyaycdoftf.tif	1361105.512272	1361105.770860	1361106.461083	7.676300e-01	17	none	NaN	NaN
 119	8	1	66	kitchen	sun_aapllqyqlykszopd.tif	1361127.100308	1361127.358895	1361128.040892	6.758481e-01	56	none	NaN	NaN
 119	8	2	91	kitchen	sun_ahljzhgcdpomplvg.tif	1361128.810331	1361129.068920	1361129.750973	7.509424e-01	81	37	1361130.336826	1
 119	8	3	104	kitchen	sun_auticobqsbwgoppi.tif	1361131.112611	1361131.371202	1361132.053109	8.510680e-01	94	none	NaN	NaN
 119	8	4	109	kitchen	sun_aypmqwcualkenuoe.tif	1361132.822636	1361133.081224	1361133.763219	7.759738e-01	99	none	NaN	NaN
 119	8	5	81	kitchen	sun_aehawpgmrlhlvcow.tif	1361134.532665	1361134.791250	1361135.473261	7.092233e-01	71	37	1361136.424796	1
 119	8	6	101	kitchen	sun_aqeaevwwwjoqhzvl.tif	1361137.201976	1361137.460562	1361138.142637	7.259109e-01	91	none	NaN	NaN
 119	8	7	85	kitchen	sun_afuyedyxivkhecmu.tif	1361138.911995	1361139.170588	1361139.852636	8.176928e-01	75	none	NaN	NaN
 119	8	8	83	kitchen	sun_aeqdocilnnpuvuhx.tif	1361140.622021	1361140.880611	1361141.562535	6.925357e-01	73	none	NaN	NaN
 119	8	9	80	kitchen	sun_aegoxogugdkwpmpj.tif	1361142.332048	1361142.590636	1361143.272544	8.093490e-01	70	none	NaN	NaN
 119	8	10	86	kitchen	sun_aggjlwcdjsjcaemh.tif	1361144.042080	1361144.300667	1361144.982615	6.675043e-01	76	39	1361145.824537	1
 119	8	11	65	kitchen	sun_aamedkxepzlwuxes.tif	1361146.602944	1361146.861534	1361147.543546	7.008795e-01	55	none	NaN	NaN
 119	8	12	98	kitchen	sun_akchetnepxlcxhsu.tif	1361148.312969	1361148.571562	1361149.253554	7.008795e-01	88	none	NaN	NaN
 119	8	13	77	kitchen	sun_acxkpeoqbwcxfvip.tif	1361150.022994	1361150.281589	1361150.963583	8.010052e-01	67	none	NaN	NaN
 119	8	14	96	kitchen	sun_ajcbwwvdlsvjyzje.tif	1361151.733024	1361151.991614	1361152.673680	8.260366e-01	86	none	NaN	NaN
 119	8	15	84	kitchen	sun_aexklacwqwezaorf.tif	1361153.443046	1361153.701636	1361154.383675	7.259109e-01	74	39	1361155.400724	1
 119	8	16	79	kitchen	sun_admlmbcdswaszruo.tif	1361156.179087	1361156.437681	1361157.119680	7.509424e-01	69	none	NaN	NaN
 119	8	17	89	kitchen	sun_agzzivivdpnawacl.tif	1361157.889117	1361158.147707	1361158.829597	8.427242e-01	79	37	1361159.584794	1
 119	8	18	92	kitchen	sun_ahpczsiumwwocjkv.tif	1361160.358227	1361160.616817	1361161.298836	8.427242e-01	82	none	NaN	NaN
 119	8	19	93	kitchen	sun_ahspylgoovwmwvgk.tif	1361162.068252	1361162.326838	1361163.008924	7.759738e-01	83	39	1361163.736717	1
 119	8	20	87	kitchen	sun_agorklincwxrdtga.tif	1361164.512333	1361164.770926	1361165.452885	7.843176e-01	77	37	1361166.128537	1
 119	8	21	68	kitchen	sun_aaxxjlsuzvqlgylf.tif	1361166.906370	1361167.164964	1361167.846954	6.841919e-01	58	none	NaN	NaN
 119	8	22	76	kitchen	sun_acwjdupvyjsugpay.tif	1361168.616399	1361168.874988	1361169.556949	6.591605e-01	66	none	NaN	NaN
 119	8	23	67	kitchen	sun_aarfiyshqohlwkmo.tif	1361170.326422	1361170.585015	1361171.266922	6.591605e-01	57	none	NaN	NaN
 119	8	24	97	kitchen	sun_ajkqhtgcbgpcwrwn.tif	1361172.036450	1361172.295043	1361172.977020	7.509424e-01	87	none	NaN	NaN
 119	8	25	110	kitchen	sun_azmutvzbxypaceni.tif	1361173.746479	1361174.005066	1361174.687157	7.175671e-01	100	none	NaN	NaN
 119	8	26	105	kitchen	sun_avszsnwsbuqfgzbn.tif	1361175.456507	1361175.715092	1361176.397180	7.843176e-01	95	none	NaN	NaN
 119	8	27	70	kitchen	sun_abdxkyyxwfskuaqb.tif	1361177.166533	1361177.425122	1361178.107158	8.510680e-01	60	none	NaN	NaN
 119	8	28	69	kitchen	sun_abdenxonkemggwsq.tif	1361178.876555	1361179.135145	1361179.817064	7.509424e-01	59	none	NaN	NaN
 119	8	29	64	kitchen	sun_aadbddgrdsjugojn.tif	1361180.586581	1361180.845173	1361181.527119	8.427242e-01	54	none	NaN	NaN
 119	8	30	72	kitchen	sun_abpwyqmlzafvklqo.tif	1361182.296606	1361182.555198	1361183.237247	7.676300e-01	62	none	NaN	NaN
 119	8	31	71	kitchen	sun_abftihopvusyfakt.tif	1361184.006632	1361184.265227	1361184.947142	7.592862e-01	61	none	NaN	NaN
 119	8	32	108	kitchen	sun_aymvwlarqodbwuoc.tif	1361185.716610	1361185.975258	1361186.657207	8.343804e-01	98	none	NaN	NaN
 119	8	33	102	kitchen	sun_auaiucuqpdausiva.tif	1361187.426686	1361187.685274	1361188.367300	7.342548e-01	92	none	NaN	NaN
 119	8	34	75	kitchen	sun_acgtpgfybqjmzeyw.tif	1361189.136712	1361189.395300	1361190.077307	7.926614e-01	65	none	NaN	NaN
 119	8	35	100	kitchen	sun_amjjdeyrggfqgmom.tif	1361190.846737	1361191.105330	1361191.787353	8.260366e-01	90	none	NaN	NaN
 119	8	36	74	kitchen	sun_acfmftudsenhrfhy.tif	1361192.556763	1361192.815347	1361193.497377	7.676300e-01	64	none	NaN	NaN
 119	8	37	73	kitchen	sun_abrcnpqqhmjwekyf.tif	1361194.266791	1361194.525384	1361195.207246	8.010052e-01	63	none	NaN	NaN
 119	8	38	94	kitchen	sun_ahywdevtimnqcsln.tif	1361195.976818	1361196.235410	1361196.917367	8.176928e-01	84	none	NaN	NaN
 119	8	39	106	kitchen	sun_awcpdzzznmweyyhv.tif	1361197.686843	1361197.945427	1361198.627506	6.925357e-01	96	none	NaN	NaN
 119	8	40	103	kitchen	sun_aunzlwrbjumxhwdj.tif	1361199.396872	1361199.655459	1361200.337432	7.175671e-01	93	none	NaN	NaN
 119	8	41	99	kitchen	sun_akcjzhbbjlbogpdi.tif	1361201.106900	1361201.365485	1361202.047396	7.425986e-01	89	none	NaN	NaN
 119	8	42	63	kitchen	labelme_rykdqxenmhulbdn.tif	1361202.816923	1361203.075511	1361203.757422	8.260366e-01	53	none	NaN	NaN
 119	8	43	61	kitchen	labelme_brsyyvweiuaazfr.tif	1361204.526941	1361204.785538	1361205.467575	7.509424e-01	51	none	NaN	NaN
 119	8	44	88	kitchen	sun_agubuxuukhzyzpdp.tif	1361206.236969	1361206.495560	1361207.177446	7.592862e-01	78	none	NaN	NaN
 119	8	45	95	kitchen	sun_aixorpehvfykdynp.tif	1361207.947000	1361208.205593	1361208.887554	7.092233e-01	85	none	NaN	NaN
 119	8	46	62	kitchen	labelme_kxvouciolcpqplr.tif	1361209.657026	1361209.915616	1361210.597498	7.843176e-01	52	none	NaN	NaN
 119	8	47	78	kitchen	sun_adgqasybjyktddhj.tif	1361211.367052	1361211.625643	1361212.307603	8.427242e-01	68	none	NaN	NaN
 119	8	48	82	kitchen	sun_aenotlpyftoioydp.tif	1361213.077077	1361213.335667	1361214.017589	6.758481e-01	72	37	1361214.760498	1
 119	8	49	90	kitchen	sun_ahdycvpopffkzzsu.tif	1361215.537842	1361215.796422	1361216.478511	7.425986e-01	80	none	NaN	NaN
 119	8	50	107	kitchen	sun_axyyrmzcupyhlivc.tif	1361217.247868	1361217.506460	1361218.188536	6.841919e-01	97	none	NaN	NaN
 119	8	51	109	kitchen	sun_aypmqwcualkenuoe.tif	1361218.957899	1361219.216483	1361219.898511	7.759738e-01	99	none	NaN	NaN
 119	8	52	75	kitchen	sun_acgtpgfybqjmzeyw.tif	1361220.667920	1361220.926510	1361221.608564	7.175671e-01	65	none	NaN	NaN
 119	8	53	76	kitchen	sun_acwjdupvyjsugpay.tif	1361222.377948	1361222.636540	1361223.318489	6.758481e-01	66	none	NaN	NaN
 119	8	54	66	kitchen	sun_aapllqyqlykszopd.tif	1361224.087976	1361224.346567	1361225.028458	6.508167e-01	56	none	NaN	NaN
 119	8	55	107	kitchen	sun_axyyrmzcupyhlivc.tif	1361225.798003	1361226.056590	1361226.738545	7.008795e-01	97	37	1361227.384791	1
 119	8	56	64	kitchen	sun_aadbddgrdsjugojn.tif	1361228.158675	1361228.417259	1361229.099165	8.260366e-01	54	37	1361230.048599	1
 119	8	57	101	kitchen	sun_aqeaevwwwjoqhzvl.tif	1361230.819639	1361231.078230	1361231.760268	6.925357e-01	91	none	NaN	NaN
 119	8	58	79	kitchen	sun_admlmbcdswaszruo.tif	1361232.529665	1361232.788257	1361233.470200	7.259109e-01	69	none	NaN	NaN
 119	8	59	61	kitchen	labelme_brsyyvweiuaazfr.tif	1361234.239689	1361234.498278	1361235.180322	7.592862e-01	51	none	NaN	NaN
 119	8	60	92	kitchen	sun_ahpczsiumwwocjkv.tif	1361235.949712	1361236.208306	1361236.890249	7.592862e-01	82	none	NaN	NaN
 119	8	61	63	kitchen	labelme_rykdqxenmhulbdn.tif	1361237.659746	1361237.918326	1361238.600218	7.342548e-01	53	none	NaN	NaN
 119	8	62	93	kitchen	sun_ahspylgoovwmwvgk.tif	1361239.369770	1361239.628355	1361240.310379	7.259109e-01	83	none	NaN	NaN
 119	8	63	106	kitchen	sun_awcpdzzznmweyyhv.tif	1361241.079794	1361241.338382	1361242.020288	6.925357e-01	96	none	NaN	NaN
 119	8	64	83	kitchen	sun_aeqdocilnnpuvuhx.tif	1361242.789823	1361243.048413	1361243.730325	6.841919e-01	73	none	NaN	NaN
 119	8	65	70	kitchen	sun_abdxkyyxwfskuaqb.tif	1361244.499843	1361244.758441	1361245.440424	7.008795e-01	60	none	NaN	NaN
 119	8	66	84	kitchen	sun_aexklacwqwezaorf.tif	1361246.209871	1361246.468462	1361247.150493	7.759738e-01	74	none	NaN	NaN
 119	8	67	78	kitchen	sun_adgqasybjyktddhj.tif	1361247.919903	1361248.178491	1361248.860517	7.926614e-01	68	none	NaN	NaN
 119	8	68	77	kitchen	sun_acxkpeoqbwcxfvip.tif	1361249.629927	1361249.888513	1361250.570542	7.843176e-01	67	none	NaN	NaN
 119	8	69	74	kitchen	sun_acfmftudsenhrfhy.tif	1361251.339951	1361251.598543	1361252.280424	8.093490e-01	64	none	NaN	NaN
 119	8	70	94	kitchen	sun_ahywdevtimnqcsln.tif	1361253.049980	1361253.308567	1361253.990479	7.092233e-01	84	39	1361254.824717	1
 119	8	71	95	kitchen	sun_aixorpehvfykdynp.tif	1361255.602503	1361255.861094	1361256.543069	6.675043e-01	85	37	1361257.416620	0
 119	8	72	73	kitchen	sun_abrcnpqqhmjwekyf.tif	1361258.188400	1361258.446985	1361259.128935	8.010052e-01	63	37	1361259.912773	1
 119	8	73	88	kitchen	sun_agubuxuukhzyzpdp.tif	1361260.690873	1361260.949464	1361261.631343	8.176928e-01	78	none	NaN	NaN
 119	8	74	98	kitchen	sun_akchetnepxlcxhsu.tif	1361262.400899	1361262.659488	1361263.341423	8.010052e-01	88	none	NaN	NaN
 119	8	75	80	kitchen	sun_aegoxogugdkwpmpj.tif	1361264.110923	1361264.369514	1361265.051514	6.675043e-01	70	39	1361265.824842	1
 119	8	76	65	kitchen	sun_aamedkxepzlwuxes.tif	1361266.596722	1361266.855308	1361267.537331	7.676300e-01	55	none	NaN	NaN
 119	8	77	103	kitchen	sun_aunzlwrbjumxhwdj.tif	1361268.306746	1361268.565336	1361269.247267	7.425986e-01	93	none	NaN	NaN
 119	8	78	86	kitchen	sun_aggjlwcdjsjcaemh.tif	1361270.016773	1361270.275358	1361270.957286	8.093490e-01	76	none	NaN	NaN
 119	8	79	71	kitchen	sun_abftihopvusyfakt.tif	1361271.726797	1361271.985386	1361272.667404	7.425986e-01	61	none	NaN	NaN
 119	8	80	81	kitchen	sun_aehawpgmrlhlvcow.tif	1361273.436828	1361273.695412	1361274.377497	8.343804e-01	71	none	NaN	NaN
 119	8	81	96	kitchen	sun_ajcbwwvdlsvjyzje.tif	1361275.146847	1361275.405442	1361276.087482	6.591605e-01	86	none	NaN	NaN
 119	8	82	102	kitchen	sun_auaiucuqpdausiva.tif	1361276.856876	1361277.115470	1361277.797387	6.925357e-01	92	none	NaN	NaN
 119	8	83	62	kitchen	labelme_kxvouciolcpqplr.tif	1361278.566902	1361278.825494	1361279.507484	7.342548e-01	52	none	NaN	NaN
 119	8	84	108	kitchen	sun_aymvwlarqodbwuoc.tif	1361280.276927	1361280.535518	1361281.217403	6.591605e-01	98	none	NaN	NaN
 119	8	85	72	kitchen	sun_abpwyqmlzafvklqo.tif	1361281.986953	1361282.245543	1361282.927425	8.176928e-01	62	none	NaN	NaN
 119	8	86	87	kitchen	sun_agorklincwxrdtga.tif	1361283.696984	1361283.955569	1361284.637597	7.342548e-01	77	none	NaN	NaN
 119	8	87	90	kitchen	sun_ahdycvpopffkzzsu.tif	1361285.407002	1361285.665599	1361286.347591	7.926614e-01	80	none	NaN	NaN
 119	8	88	82	kitchen	sun_aenotlpyftoioydp.tif	1361287.116976	1361287.375624	1361288.057446	6.841919e-01	72	none	NaN	NaN
 119	8	89	100	kitchen	sun_amjjdeyrggfqgmom.tif	1361288.827077	1361289.085646	1361289.767557	7.175671e-01	90	39	1361290.520719	1
 119	8	90	67	kitchen	sun_aarfiyshqohlwkmo.tif	1361291.296171	1361291.554759	1361292.236627	7.092233e-01	57	none	NaN	NaN
 119	8	91	104	kitchen	sun_auticobqsbwgoppi.tif	1361293.006198	1361293.264787	1361293.946779	8.093490e-01	94	none	NaN	NaN
 119	8	92	110	kitchen	sun_azmutvzbxypaceni.tif	1361294.716215	1361294.974811	1361295.656691	7.676300e-01	100	none	NaN	NaN
 119	8	93	105	kitchen	sun_avszsnwsbuqfgzbn.tif	1361296.426245	1361296.684840	1361297.366797	8.176928e-01	95	none	NaN	NaN
 119	8	94	97	kitchen	sun_ajkqhtgcbgpcwrwn.tif	1361298.136264	1361298.394861	1361299.076823	8.343804e-01	87	none	NaN	NaN
 119	8	95	85	kitchen	sun_afuyedyxivkhecmu.tif	1361299.846297	1361300.104887	1361300.786967	8.343804e-01	75	none	NaN	NaN
 119	8	96	89	kitchen	sun_agzzivivdpnawacl.tif	1361301.556325	1361301.814913	1361302.496905	7.926614e-01	79	none	NaN	NaN
 119	8	97	91	kitchen	sun_ahljzhgcdpomplvg.tif	1361303.266346	1361303.524940	1361304.206930	6.675043e-01	81	none	NaN	NaN
 119	8	98	99	kitchen	sun_akcjzhbbjlbogpdi.tif	1361304.976377	1361305.234968	1361305.916995	6.508167e-01	89	none	NaN	NaN
 119	8	99	68	kitchen	sun_aaxxjlsuzvqlgylf.tif	1361306.686400	1361306.944996	1361307.626923	6.758481e-01	58	none	NaN	NaN
 119	8	100	69	kitchen	sun_abdenxonkemggwsq.tif	1361308.396426	1361308.655019	1361309.337010	6.508167e-01	59	none	NaN	NaN
 119	9	1	11	bathroom	labelme_sfxiulhjbhlyiyt.tif	1361336.265683	1361336.524271	1361337.172918	7.759738e-01	1	none	NaN	NaN
 119	9	2	24	bathroom	sun_agrwbmhcpmfuwmsg.tif	1361337.942342	1361338.200933	1361338.849600	8.510680e-01	14	none	NaN	NaN
 119	9	3	60	bathroom	sun_azqyogdvyhahyram.tif	1361339.619002	1361339.877593	1361340.526211	7.008795e-01	50	none	NaN	NaN
 119	9	4	19	bathroom	sun_aclfzgynxzxlbepz.tif	1361341.295656	1361341.554252	1361342.202812	7.926614e-01	9	none	NaN	NaN
 119	9	5	14	bathroom	sun_abapwbhyhkfixyex.tif	1361342.972320	1361343.230907	1361343.879561	8.176928e-01	4	none	NaN	NaN
 119	9	6	15	bathroom	sun_abjtwfukuwddzted.tif	1361344.648979	1361344.907569	1361345.556094	6.925357e-01	5	39	1361346.392727	1
 119	9	7	21	bathroom	sun_aggnnqpdorgxpvce.tif	1361347.168145	1361347.426730	1361348.075372	7.509424e-01	11	none	NaN	NaN
 119	9	8	38	bathroom	sun_anhioqovhscjqqwb.tif	1361348.844799	1361349.103391	1361349.751911	6.508167e-01	28	none	NaN	NaN
 119	9	9	44	bathroom	sun_apkruvsevgegsdwp.tif	1361350.521458	1361350.780049	1361351.428703	6.591605e-01	34	none	NaN	NaN
 119	9	10	56	bathroom	sun_awnqiikzaispgmwo.tif	1361352.198118	1361352.456709	1361353.105344	6.591605e-01	46	none	NaN	NaN
 119	9	11	16	bathroom	sun_acduarbnmmoglmiv.tif	1361353.874777	1361354.133364	1361354.781997	8.260366e-01	6	none	NaN	NaN
 119	9	12	45	bathroom	sun_apkxzenqapsujocq.tif	1361355.551438	1361355.810028	1361356.458567	8.010052e-01	35	none	NaN	NaN
 119	9	13	18	bathroom	sun_acgyywnybuveqsro.tif	1361357.228097	1361357.486691	1361358.135305	8.427242e-01	8	none	NaN	NaN
 119	9	14	20	bathroom	sun_afcoljnjfoxjtgja.tif	1361358.904758	1361359.163344	1361359.812029	7.759738e-01	10	37	1361360.480683	1
 119	9	15	49	bathroom	sun_asfwthctfqerjvxr.tif	1361361.257088	1361361.515677	1361362.164279	8.093490e-01	39	none	NaN	NaN
 119	9	16	31	bathroom	sun_akiytfaagpdsphgz.tif	1361362.933744	1361363.192328	1361363.841014	7.592862e-01	21	none	NaN	NaN
 119	9	17	17	bathroom	sun_acegryoqftbzowsg.tif	1361364.610408	1361364.868995	1361365.517591	7.425986e-01	7	none	NaN	NaN
 119	9	18	54	bathroom	sun_auzqhkafidnkrwmo.tif	1361366.287062	1361366.545659	1361367.194179	8.510680e-01	44	none	NaN	NaN
 119	9	19	50	bathroom	sun_aspsyogrekjtfozg.tif	1361367.963723	1361368.222318	1361368.870921	8.176928e-01	40	none	NaN	NaN
 119	9	20	34	bathroom	sun_alkosphxlxwjwgjd.tif	1361369.640382	1361369.898975	1361370.547569	7.342548e-01	24	37	1361371.168673	1
 119	9	21	53	bathroom	sun_ausgutylgojavyoq.tif	1361371.942661	1361372.201249	1361372.849883	6.841919e-01	43	none	NaN	NaN
