subject	block	trial	texture	category	image	trialOnset	itiOnset	trialEnd	iti	EEGtrigger	responseKey	responseTime	accuracy
122	1	1	13	bathroom	sun_aavhrsfjbserjtht.tif	1103290.105897	1103290.364487	1103291.104605	7.506792e-01	3	none	NaN	NaN
122	1	2	49	bathroom	sun_asfwthctfqerjvxr.tif	1103291.874318	1103292.132903	1103292.872923	8.424289e-01	39	none	NaN	NaN
122	1	3	25	bathroom	sun_agyqfjcfkdcydepw.tif	1103293.634392	1103293.892977	1103294.633091	6.589295e-01	15	39	1103295.792215	1
122	1	4	38	bathroom	sun_anhioqovhscjqqwb.tif	1103296.570634	1103296.829222	1103297.569360	7.840427e-01	28	none	NaN	NaN
122	1	5	37	bathroom	sun_amzlamotzwfkwjco.tif	1103298.347391	1103298.605979	1103299.346122	7.173157e-01	27	none	NaN	NaN
122	1	6	16	bathroom	sun_acduarbnmmoglmiv.tif	1103300.115812	1103300.374403	1103301.114507	6.922930e-01	6	none	NaN	NaN
122	1	7	41	bathroom	sun_aoybiabnpadelefl.tif	1103301.884233	1103302.142819	1103302.882865	6.922930e-01	31	39	1103303.584185	1
122	1	8	55	bathroom	sun_avhrdrntsqrjzccq.tif	1103304.361687	1103304.620273	1103305.360499	6.922930e-01	45	none	NaN	NaN
122	1	9	60	bathroom	sun_azqyogdvyhahyram.tif	1103306.130108	1103306.388694	1103307.128906	7.423383e-01	50	37	1103308.456167	1
122	1	10	29	bathroom	sun_ahqjwnzgolcaoidx.tif	1103309.233198	1103309.491768	1103310.231877	7.339974e-01	19	none	NaN	NaN
122	1	11	15	bathroom	sun_abjtwfukuwddzted.tif	1103311.001596	1103311.260190	1103312.000513	8.340880e-01	5	37	1103312.856831	1
122	1	12	39	bathroom	sun_anryaplzeujmzfkd.tif	1103313.629202	1103313.887790	1103314.627987	6.756113e-01	29	none	NaN	NaN
122	1	13	17	bathroom	sun_acegryoqftbzowsg.tif	1103315.397616	1103315.656207	1103316.396318	8.090654e-01	7	none	NaN	NaN
122	1	14	30	bathroom	sun_ajlawzvmubibwbpy.tif	1103317.166035	1103317.424623	1103318.164750	8.174062e-01	20	none	NaN	NaN
122	1	15	23	bathroom	sun_aghyqhbptboemmoq.tif	1103318.934458	1103319.193042	1103319.933122	7.840427e-01	13	none	NaN	NaN
122	1	16	53	bathroom	sun_ausgutylgojavyoq.tif	1103320.702873	1103320.961463	1103321.701675	7.506792e-01	43	none	NaN	NaN
122	1	17	59	bathroom	sun_axyrejkiiaqiurjk.tif	1103322.471293	1103322.729879	1103323.470142	7.423383e-01	49	none	NaN	NaN
122	1	18	58	bathroom	sun_axxbkopsgyouuebh.tif	1103324.239714	1103324.498296	1103325.238341	7.339974e-01	48	none	NaN	NaN
122	1	19	14	bathroom	sun_abapwbhyhkfixyex.tif	1103326.008128	1103326.266718	1103327.006756	7.089748e-01	4	none	NaN	NaN
122	1	20	33	bathroom	sun_aljolscmmzydegqp.tif	1103327.768209	1103328.026794	1103328.766834	6.922930e-01	23	none	NaN	NaN
122	1	21	46	bathroom	sun_apmqjbnwghzuhhzh.tif	1103329.536625	1103329.795212	1103330.535398	7.339974e-01	36	39	1103331.368259	1
122	1	22	18	bathroom	sun_acgyywnybuveqsro.tif	1103332.139202	1103332.397794	1103333.137843	6.756113e-01	8	none	NaN	NaN
122	1	23	19	bathroom	sun_aclfzgynxzxlbepz.tif	1103333.899279	1103334.157867	1103334.898047	7.757018e-01	9	none	NaN	NaN
122	1	24	11	bathroom	labelme_sfxiulhjbhlyiyt.tif	1103335.667700	1103335.926288	1103336.666503	6.672704e-01	1	39	1103337.648143	1
122	1	25	27	bathroom	sun_ahcvzmoyaycdoftf.tif	1103338.420427	1103338.679014	1103339.419132	8.257471e-01	17	none	NaN	NaN
122	1	26	21	bathroom	sun_aggnnqpdorgxpvce.tif	1103340.188844	1103340.447432	1103341.187510	7.590201e-01	11	none	NaN	NaN
122	1	27	42	bathroom	sun_apeeialkgkuxddgh.tif	1103341.957260	1103342.215849	1103342.956070	7.590201e-01	32	none	NaN	NaN
122	1	28	56	bathroom	sun_awnqiikzaispgmwo.tif	1103343.725682	1103343.984266	1103344.724458	8.174062e-01	46	none	NaN	NaN
122	1	29	44	bathroom	sun_apkruvsevgegsdwp.tif	1103345.494102	1103345.752684	1103346.492725	7.423383e-01	34	none	NaN	NaN
122	1	30	20	bathroom	sun_afcoljnjfoxjtgja.tif	1103347.254173	1103347.512764	1103348.252814	7.173157e-01	10	none	NaN	NaN
122	1	31	28	bathroom	sun_ahijqszoswveeyji.tif	1103349.022595	1103349.281185	1103350.021332	8.424289e-01	18	none	NaN	NaN
122	1	32	26	bathroom	sun_ahaulkltgpkeeemi.tif	1103350.791013	1103351.049603	1103351.789624	7.673610e-01	16	none	NaN	NaN
122	1	33	22	bathroom	sun_agguqiubmwhqqunb.tif	1103352.551089	1103352.809680	1103353.549917	7.006339e-01	12	none	NaN	NaN
122	1	34	47	bathroom	sun_apynckhmoftszqoq.tif	1103354.319503	1103354.578099	1103355.318298	7.590201e-01	37	none	NaN	NaN
122	1	35	45	bathroom	sun_apkxzenqapsujocq.tif	1103356.087930	1103356.346514	1103357.086552	8.174062e-01	35	none	NaN	NaN
122	1	36	34	bathroom	sun_alkosphxlxwjwgjd.tif	1103357.848032	1103358.106592	1103358.846839	8.340880e-01	24	none	NaN	NaN
122	1	37	12	bathroom	sun_aapitsgbtktqubfy.tif	1103359.616419	1103359.875011	1103360.615217	8.090654e-01	2	none	NaN	NaN
122	1	38	52	bathroom	sun_aunuadmjocsddsrl.tif	1103361.384838	1103361.643431	1103362.383552	7.089748e-01	42	none	NaN	NaN
122	1	39	50	bathroom	sun_aspsyogrekjtfozg.tif	1103363.153258	1103363.411855	1103364.151927	7.923836e-01	40	none	NaN	NaN
122	1	40	54	bathroom	sun_auzqhkafidnkrwmo.tif	1103364.921677	1103365.180266	1103365.920493	6.505886e-01	44	none	NaN	NaN
122	1	41	31	bathroom	sun_akiytfaagpdsphgz.tif	1103366.690099	1103366.948685	1103367.688815	6.589295e-01	21	39	1103368.504312	1
122	1	42	48	bathroom	sun_aqrpegblszgcoujh.tif	1103369.275996	1103369.534578	1103370.274771	8.090654e-01	38	none	NaN	NaN
122	1	43	35	bathroom	sun_alotolagknyrgtsk.tif	1103371.044408	1103371.302999	1103372.043205	8.007245e-01	25	none	NaN	NaN
122	1	44	24	bathroom	sun_agrwbmhcpmfuwmsg.tif	1103372.812826	1103373.071416	1103373.811451	7.256566e-01	14	none	NaN	NaN
122	1	45	40	bathroom	sun_aofnryafpsjimzsb.tif	1103374.581242	1103374.839834	1103375.580012	7.840427e-01	30	none	NaN	NaN
122	1	46	36	bathroom	sun_ambriybtogmepttm.tif	1103376.349664	1103376.608251	1103377.348281	7.757018e-01	26	none	NaN	NaN
122	1	47	57	bathroom	sun_axldvoqbuvuggfmq.tif	1103378.109739	1103378.368332	1103379.108536	8.257471e-01	47	none	NaN	NaN
122	1	48	43	bathroom	sun_apjevzvycyhuqghb.tif	1103379.878157	1103380.136749	1103380.876940	6.505886e-01	33	none	NaN	NaN
122	1	49	32	bathroom	sun_aleqenyvunhactkl.tif	1103381.646577	1103381.905164	1103382.645233	7.006339e-01	22	none	NaN	NaN
122	1	50	51	bathroom	sun_atstyziqcmkahyxk.tif	1103383.414995	1103383.673587	1103384.413723	8.007245e-01	41	none	NaN	NaN
122	1	51	59	bathroom	sun_axyrejkiiaqiurjk.tif	1103385.183417	1103385.442001	1103386.182111	7.006339e-01	49	none	NaN	NaN
122	1	52	11	bathroom	labelme_sfxiulhjbhlyiyt.tif	1103386.951836	1103387.210424	1103387.950631	7.339974e-01	1	none	NaN	NaN
122	1	53	25	bathroom	sun_agyqfjcfkdcydepw.tif	1103388.720251	1103388.978840	1103389.718907	7.506792e-01	15	none	NaN	NaN
122	1	54	16	bathroom	sun_acduarbnmmoglmiv.tif	1103390.488673	1103390.747260	1103391.487283	7.173157e-01	6	none	NaN	NaN
122	1	55	21	bathroom	sun_aggnnqpdorgxpvce.tif	1103392.248747	1103392.507339	1103393.247413	7.590201e-01	11	none	NaN	NaN
122	1	56	51	bathroom	sun_atstyziqcmkahyxk.tif	1103394.017168	1103394.275757	1103395.015783	7.923836e-01	41	none	NaN	NaN
122	1	57	32	bathroom	sun_aleqenyvunhactkl.tif	1103395.785586	1103396.044171	1103396.784201	7.923836e-01	22	none	NaN	NaN
122	1	58	33	bathroom	sun_aljolscmmzydegqp.tif	1103397.545661	1103397.804251	1103398.544413	7.673610e-01	23	none	NaN	NaN
122	1	59	18	bathroom	sun_acgyywnybuveqsro.tif	1103399.314076	1103399.572665	1103400.312753	7.089748e-01	8	none	NaN	NaN
122	1	60	36	bathroom	sun_ambriybtogmepttm.tif	1103401.082499	1103401.341089	1103402.081233	7.840427e-01	26	none	NaN	NaN
122	1	61	13	bathroom	sun_aavhrsfjbserjtht.tif	1103402.850914	1103403.109507	1103403.849724	8.507698e-01	3	none	NaN	NaN
122	1	62	56	bathroom	sun_awnqiikzaispgmwo.tif	1103404.619335	1103404.877926	1103405.617954	7.757018e-01	46	39	1103406.784113	1
122	1	63	14	bathroom	sun_abapwbhyhkfixyex.tif	1103407.555577	1103407.814165	1103408.554359	6.589295e-01	4	none	NaN	NaN
122	1	64	45	bathroom	sun_apkxzenqapsujocq.tif	1103409.323991	1103409.582584	1103410.322640	8.090654e-01	35	none	NaN	NaN
122	1	65	38	bathroom	sun_anhioqovhscjqqwb.tif	1103411.092414	1103411.351004	1103412.091016	8.257471e-01	28	37	1103412.984253	1
122	1	66	44	bathroom	sun_apkruvsevgegsdwp.tif	1103413.761733	1103414.020312	1103414.760489	8.007245e-01	34	37	1103416.352340	1
122	1	67	35	bathroom	sun_alotolagknyrgtsk.tif	1103417.123376	1103417.381979	1103418.122195	6.672704e-01	25	none	NaN	NaN
122	1	68	55	bathroom	sun_avhrdrntsqrjzccq.tif	1103418.891803	1103419.150393	1103419.890475	6.756113e-01	45	39	1103420.815951	1
122	1	69	22	bathroom	sun_agguqiubmwhqqunb.tif	1103421.594480	1103421.853068	1103422.593172	6.839522e-01	12	none	NaN	NaN
122	1	70	24	bathroom	sun_agrwbmhcpmfuwmsg.tif	1103423.362900	1103423.621486	1103424.361527	7.423383e-01	14	none	NaN	NaN
122	1	71	47	bathroom	sun_apynckhmoftszqoq.tif	1103425.131315	1103425.389906	1103426.129914	8.340880e-01	37	none	NaN	NaN
122	1	72	53	bathroom	sun_ausgutylgojavyoq.tif	1103426.899737	1103427.158324	1103427.898415	7.590201e-01	43	none	NaN	NaN
122	1	73	15	bathroom	sun_abjtwfukuwddzted.tif	1103428.668157	1103428.926743	1103429.666936	8.007245e-01	5	none	NaN	NaN
122	1	74	28	bathroom	sun_ahijqszoswveeyji.tif	1103430.436571	1103430.695163	1103431.435334	7.256566e-01	18	none	NaN	NaN
122	1	75	26	bathroom	sun_ahaulkltgpkeeemi.tif	1103432.204990	1103432.463580	1103433.203706	8.174062e-01	16	37	1103433.967951	1
122	1	76	58	bathroom	sun_axxbkopsgyouuebh.tif	1103434.740840	1103434.999423	1103435.739611	6.839522e-01	48	none	NaN	NaN
122	1	77	17	bathroom	sun_acegryoqftbzowsg.tif	1103436.509255	1103436.767844	1103437.507982	6.839522e-01	7	37	1103438.368405	1
122	1	78	54	bathroom	sun_auzqhkafidnkrwmo.tif	1103439.145196	1103439.403790	1103440.144096	8.340880e-01	44	none	NaN	NaN
122	1	79	30	bathroom	sun_ajlawzvmubibwbpy.tif	1103440.913618	1103441.172207	1103441.912315	7.173157e-01	20	none	NaN	NaN
122	1	80	19	bathroom	sun_aclfzgynxzxlbepz.tif	1103442.682040	1103442.940626	1103443.680641	8.257471e-01	9	none	NaN	NaN
122	1	81	60	bathroom	sun_azqyogdvyhahyram.tif	1103444.450454	1103444.709043	1103445.449261	7.256566e-01	50	none	NaN	NaN
122	1	82	50	bathroom	sun_aspsyogrekjtfozg.tif	1103446.218870	1103446.477462	1103447.217683	7.757018e-01	40	none	NaN	NaN
122	1	83	42	bathroom	sun_apeeialkgkuxddgh.tif	1103447.987289	1103448.245875	1103448.985955	7.006339e-01	32	none	NaN	NaN
122	1	84	49	bathroom	sun_asfwthctfqerjvxr.tif	1103449.747380	1103450.005956	1103450.746164	7.673610e-01	39	none	NaN	NaN
122	1	85	27	bathroom	sun_ahcvzmoyaycdoftf.tif	1103451.515782	1103451.774379	1103452.514611	7.006339e-01	17	none	NaN	NaN
122	1	86	12	bathroom	sun_aapitsgbtktqubfy.tif	1103453.284203	1103453.542794	1103454.282889	7.256566e-01	2	none	NaN	NaN
122	1	87	23	bathroom	sun_aghyqhbptboemmoq.tif	1103455.052623	1103455.311210	1103456.051238	6.505886e-01	13	39	1103456.848295	1
122	1	88	20	bathroom	sun_afcoljnjfoxjtgja.tif	1103457.621833	1103457.880424	1103458.620471	8.424289e-01	10	none	NaN	NaN
122	1	89	40	bathroom	sun_aofnryafpsjimzsb.tif	1103459.390253	1103459.648843	1103460.389017	6.589295e-01	30	none	NaN	NaN
122	1	90	39	bathroom	sun_anryaplzeujmzfkd.tif	1103461.158671	1103461.417260	1103462.157306	6.839522e-01	29	none	NaN	NaN
122	1	91	43	bathroom	sun_apjevzvycyhuqghb.tif	1103462.927091	1103463.185680	1103463.925809	8.257471e-01	33	none	NaN	NaN
122	1	92	34	bathroom	sun_alkosphxlxwjwgjd.tif	1103464.695504	1103464.954096	1103465.694315	6.672704e-01	24	none	NaN	NaN
122	1	93	41	bathroom	sun_aoybiabnpadelefl.tif	1103466.463922	1103466.722510	1103467.462558	8.424289e-01	31	none	NaN	NaN
122	1	94	46	bathroom	sun_apmqjbnwghzuhhzh.tif	1103468.232343	1103468.490934	1103469.230972	6.756113e-01	36	none	NaN	NaN
122	1	95	57	bathroom	sun_axldvoqbuvuggfmq.tif	1103469.992421	1103470.251010	1103470.991160	8.507698e-01	47	none	NaN	NaN
122	1	96	31	bathroom	sun_akiytfaagpdsphgz.tif	1103471.760840	1103472.019426	1103472.759503	7.506792e-01	21	37	1103473.535947	1
122	1	97	37	bathroom	sun_amzlamotzwfkwjco.tif	1103474.313366	1103474.571955	1103475.312122	7.089748e-01	27	none	NaN	NaN
122	1	98	29	bathroom	sun_ahqjwnzgolcaoidx.tif	1103476.081786	1103476.340373	1103477.080420	7.673610e-01	19	none	NaN	NaN
122	1	99	52	bathroom	sun_aunuadmjocsddsrl.tif	1103477.841866	1103478.100451	1103478.840681	7.923836e-01	42	none	NaN	NaN
122	1	100	48	bathroom	sun_aqrpegblszgcoujh.tif	1103479.610283	1103479.868868	1103480.608898	6.672704e-01	38	none	NaN	NaN
122	2	1	62	kitchen	labelme_kxvouciolcpqplr.tif	1103488.635887	1103488.894476	1103489.584647	8.257471e-01	52	none	NaN	NaN
122	2	2	82	kitchen	sun_aenotlpyftoioydp.tif	1103490.354256	1103490.612845	1103491.302834	7.006339e-01	72	none	NaN	NaN
122	2	3	80	kitchen	sun_aegoxogugdkwpmpj.tif	1103492.064284	1103492.322873	1103493.012903	8.257471e-01	70	none	NaN	NaN
122	2	4	84	kitchen	sun_aexklacwqwezaorf.tif	1103493.782651	1103494.041241	1103494.731320	7.506792e-01	74	none	NaN	NaN
122	2	5	88	kitchen	sun_agubuxuukhzyzpdp.tif	1103495.501020	1103495.759609	1103496.449596	7.423383e-01	78	none	NaN	NaN
122	2	6	85	kitchen	sun_afuyedyxivkhecmu.tif	1103497.211049	1103497.469639	1103498.159651	7.923836e-01	75	37	1103499.008363	1
122	2	7	73	kitchen	sun_abrcnpqqhmjwekyf.tif	1103499.780261	1103500.038846	1103500.728864	7.590201e-01	63	none	NaN	NaN
122	2	8	99	kitchen	sun_akcjzhbbjlbogpdi.tif	1103501.498632	1103501.757216	1103502.447299	7.256566e-01	89	none	NaN	NaN
122	2	9	75	kitchen	sun_acgtpgfybqjmzeyw.tif	1103503.216996	1103503.475586	1103504.165703	7.590201e-01	65	none	NaN	NaN
122	2	10	92	kitchen	sun_ahpczsiumwwocjkv.tif	1103504.935363	1103505.193950	1103505.884111	7.590201e-01	82	none	NaN	NaN
122	2	11	67	kitchen	sun_aarfiyshqohlwkmo.tif	1103506.653731	1103506.912327	1103507.602371	7.506792e-01	57	37	1103508.440191	1
122	2	12	89	kitchen	sun_agzzivivdpnawacl.tif	1103509.214598	1103509.473191	1103510.163217	7.089748e-01	79	none	NaN	NaN
122	2	13	87	kitchen	sun_agorklincwxrdtga.tif	1103510.924629	1103511.183221	1103511.873213	8.340880e-01	77	none	NaN	NaN
122	2	14	70	kitchen	sun_abdxkyyxwfskuaqb.tif	1103512.642997	1103512.901591	1103513.591744	7.006339e-01	60	none	NaN	NaN
122	2	15	69	kitchen	sun_abdenxonkemggwsq.tif	1103514.361370	1103514.619959	1103515.309960	6.505886e-01	59	none	NaN	NaN
122	2	16	66	kitchen	sun_aapllqyqlykszopd.tif	1103516.079740	1103516.338327	1103517.028444	7.339974e-01	56	39	1103518.104360	1
122	2	17	104	kitchen	sun_auticobqsbwgoppi.tif	1103518.882515	1103519.141103	1103519.831116	8.007245e-01	94	none	NaN	NaN
122	2	18	90	kitchen	sun_ahdycvpopffkzzsu.tif	1103520.592542	1103520.851131	1103521.541315	6.839522e-01	80	none	NaN	NaN
122	2	19	96	kitchen	sun_ajcbwwvdlsvjyzje.tif	1103522.310913	1103522.569499	1103523.259655	7.006339e-01	86	none	NaN	NaN
122	2	20	65	kitchen	sun_aamedkxepzlwuxes.tif	1103524.029279	1103524.287888	1103524.978039	7.089748e-01	55	none	NaN	NaN
122	2	21	106	kitchen	sun_awcpdzzznmweyyhv.tif	1103525.747650	1103526.006232	1103526.696264	7.673610e-01	96	none	NaN	NaN
122	2	22	83	kitchen	sun_aeqdocilnnpuvuhx.tif	1103527.466018	1103527.724609	1103528.414756	8.424289e-01	73	none	NaN	NaN
122	2	23	64	kitchen	sun_aadbddgrdsjugojn.tif	1103529.184386	1103529.442977	1103530.133138	7.840427e-01	54	none	NaN	NaN
122	2	24	61	kitchen	labelme_brsyyvweiuaazfr.tif	1103530.902754	1103531.161339	1103531.851504	7.173157e-01	51	none	NaN	NaN
122	2	25	107	kitchen	sun_axyyrmzcupyhlivc.tif	1103532.621119	1103532.879712	1103533.569735	7.339974e-01	97	none	NaN	NaN
122	2	26	91	kitchen	sun_ahljzhgcdpomplvg.tif	1103534.339487	1103534.598082	1103535.288200	6.589295e-01	81	none	NaN	NaN
122	2	27	94	kitchen	sun_ahywdevtimnqcsln.tif	1103536.057859	1103536.316448	1103537.006580	7.506792e-01	84	none	NaN	NaN
122	2	28	78	kitchen	sun_adgqasybjyktddhj.tif	1103537.776225	1103538.034817	1103538.724819	7.256566e-01	68	none	NaN	NaN
122	2	29	102	kitchen	sun_auaiucuqpdausiva.tif	1103539.494595	1103539.753189	1103540.443249	6.922930e-01	92	none	NaN	NaN
122	2	30	95	kitchen	sun_aixorpehvfykdynp.tif	1103541.212967	1103541.471553	1103542.161620	6.672704e-01	85	none	NaN	NaN
122	2	31	81	kitchen	sun_aehawpgmrlhlvcow.tif	1103542.931333	1103543.189921	1103543.879940	7.006339e-01	71	39	1103545.039967	1
122	2	32	74	kitchen	sun_acfmftudsenhrfhy.tif	1103545.817526	1103546.076115	1103546.766135	8.340880e-01	64	37	1103547.632148	1
122	2	33	72	kitchen	sun_abpwyqmlzafvklqo.tif	1103548.403417	1103548.662011	1103549.352017	7.089748e-01	62	none	NaN	NaN
122	2	34	109	kitchen	sun_aypmqwcualkenuoe.tif	1103550.121787	1103550.380381	1103551.070496	7.173157e-01	99	37	1103551.928154	1
122	2	35	63	kitchen	labelme_rykdqxenmhulbdn.tif	1103552.699345	1103552.957929	1103553.647997	7.757018e-01	53	none	NaN	NaN
122	2	36	105	kitchen	sun_avszsnwsbuqfgzbn.tif	1103554.417709	1103554.676302	1103555.366378	7.089748e-01	95	none	NaN	NaN
122	2	37	98	kitchen	sun_akchetnepxlcxhsu.tif	1103556.136083	1103556.394613	1103557.084854	8.090654e-01	88	none	NaN	NaN
122	2	38	86	kitchen	sun_aggjlwcdjsjcaemh.tif	1103557.854451	1103558.113039	1103558.803014	6.672704e-01	76	none	NaN	NaN
122	2	39	68	kitchen	sun_aaxxjlsuzvqlgylf.tif	1103559.564472	1103559.823061	1103560.513183	7.590201e-01	58	none	NaN	NaN
122	2	40	71	kitchen	sun_abftihopvusyfakt.tif	1103561.282846	1103561.541435	1103562.231579	8.424289e-01	61	none	NaN	NaN
122	2	41	93	kitchen	sun_ahspylgoovwmwvgk.tif	1103563.001214	1103563.259802	1103563.949965	7.673610e-01	83	39	1103565.000356	1
122	2	42	100	kitchen	sun_amjjdeyrggfqgmom.tif	1103565.778961	1103566.037556	1103566.727709	8.174062e-01	90	none	NaN	NaN
122	2	43	108	kitchen	sun_aymvwlarqodbwuoc.tif	1103567.497332	1103567.755925	1103568.446074	6.756113e-01	98	none	NaN	NaN
122	2	44	76	kitchen	sun_acwjdupvyjsugpay.tif	1103569.215699	1103569.474293	1103570.164418	7.840427e-01	66	none	NaN	NaN
122	2	45	97	kitchen	sun_ajkqhtgcbgpcwrwn.tif	1103570.934070	1103571.192661	1103571.882712	7.757018e-01	87	none	NaN	NaN
122	2	46	79	kitchen	sun_admlmbcdswaszruo.tif	1103572.652440	1103572.911029	1103573.600993	8.257471e-01	69	none	NaN	NaN
122	2	47	77	kitchen	sun_acxkpeoqbwcxfvip.tif	1103574.362466	1103574.621056	1103575.311100	7.923836e-01	67	none	NaN	NaN
122	2	48	103	kitchen	sun_aunzlwrbjumxhwdj.tif	1103576.080834	1103576.339423	1103577.029452	7.840427e-01	93	none	NaN	NaN
122	2	49	110	kitchen	sun_azmutvzbxypaceni.tif	1103577.799204	1103578.057794	1103578.747950	8.007245e-01	100	none	NaN	NaN
122	2	50	101	kitchen	sun_aqeaevwwwjoqhzvl.tif	1103579.517570	1103579.776163	1103580.466330	7.173157e-01	91	none	NaN	NaN
122	2	51	88	kitchen	sun_agubuxuukhzyzpdp.tif	1103581.235940	1103581.494532	1103582.184699	8.174062e-01	78	none	NaN	NaN
122	2	52	92	kitchen	sun_ahpczsiumwwocjkv.tif	1103582.954308	1103583.212900	1103583.902908	6.922930e-01	82	39	1103585.184228	1
122	2	53	66	kitchen	sun_aapllqyqlykszopd.tif	1103585.957282	1103586.215869	1103586.906024	8.090654e-01	56	none	NaN	NaN
122	2	54	102	kitchen	sun_auaiucuqpdausiva.tif	1103587.675653	1103587.934243	1103588.624311	7.923836e-01	92	37	1103589.264340	1
122	2	55	78	kitchen	sun_adgqasybjyktddhj.tif	1103590.036326	1103590.294913	1103590.985093	7.923836e-01	68	none	NaN	NaN
122	2	56	68	kitchen	sun_aaxxjlsuzvqlgylf.tif	1103591.754693	1103592.013281	1103592.703337	6.756113e-01	58	none	NaN	NaN
122	2	57	62	kitchen	labelme_kxvouciolcpqplr.tif	1103593.473056	1103593.731651	1103594.421641	6.589295e-01	52	none	NaN	NaN
122	2	58	100	kitchen	sun_amjjdeyrggfqgmom.tif	1103595.191431	1103595.450021	1103596.140113	6.922930e-01	90	none	NaN	NaN
122	2	59	74	kitchen	sun_acfmftudsenhrfhy.tif	1103596.909799	1103597.168387	1103597.858400	7.173157e-01	64	none	NaN	NaN
122	2	60	109	kitchen	sun_aypmqwcualkenuoe.tif	1103598.628167	1103598.886753	1103599.576861	8.424289e-01	99	none	NaN	NaN
122	2	61	105	kitchen	sun_avszsnwsbuqfgzbn.tif	1103600.346537	1103600.605127	1103601.295287	7.590201e-01	95	none	NaN	NaN
122	2	62	67	kitchen	sun_aarfiyshqohlwkmo.tif	1103602.064903	1103602.323495	1103603.013639	6.839522e-01	57	none	NaN	NaN
122	2	63	83	kitchen	sun_aeqdocilnnpuvuhx.tif	1103603.783272	1103604.041863	1103604.732044	6.672704e-01	73	none	NaN	NaN
122	2	64	90	kitchen	sun_ahdycvpopffkzzsu.tif	1103605.501639	1103605.760235	1103606.450256	6.756113e-01	80	none	NaN	NaN
122	2	65	75	kitchen	sun_acgtpgfybqjmzeyw.tif	1103607.220010	1103607.478604	1103608.168610	7.757018e-01	65	none	NaN	NaN
122	2	66	101	kitchen	sun_aqeaevwwwjoqhzvl.tif	1103608.938376	1103609.196970	1103609.887009	7.757018e-01	91	none	NaN	NaN
122	2	67	82	kitchen	sun_aenotlpyftoioydp.tif	1103610.656745	1103610.915337	1103611.605455	6.839522e-01	72	39	1103612.520198	1
122	2	68	97	kitchen	sun_ajkqhtgcbgpcwrwn.tif	1103613.292689	1103613.551280	1103614.241396	7.006339e-01	87	none	NaN	NaN
122	2	69	77	kitchen	sun_acxkpeoqbwcxfvip.tif	1103615.011055	1103615.269646	1103615.959792	7.339974e-01	67	none	NaN	NaN
122	2	70	63	kitchen	labelme_rykdqxenmhulbdn.tif	1103616.729430	1103616.988022	1103617.677990	7.423383e-01	53	none	NaN	NaN
122	2	71	87	kitchen	sun_agorklincwxrdtga.tif	1103618.439455	1103618.698046	1103619.388038	8.340880e-01	77	none	NaN	NaN
122	2	72	84	kitchen	sun_aexklacwqwezaorf.tif	1103620.157829	1103620.416414	1103621.106441	7.673610e-01	74	none	NaN	NaN
122	2	73	94	kitchen	sun_ahywdevtimnqcsln.tif	1103621.876193	1103622.134785	1103622.824758	6.922930e-01	84	37	1103623.511952	1
122	2	74	65	kitchen	sun_aamedkxepzlwuxes.tif	1103624.286914	1103624.545507	1103625.235469	8.507698e-01	55	none	NaN	NaN
122	2	75	96	kitchen	sun_ajcbwwvdlsvjyzje.tif	1103625.996942	1103626.255544	1103626.945581	7.506792e-01	86	39	1103627.736142	1
122	2	76	106	kitchen	sun_awcpdzzznmweyyhv.tif	1103628.507763	1103628.766351	1103629.456534	8.007245e-01	96	none	NaN	NaN
122	2	77	80	kitchen	sun_aegoxogugdkwpmpj.tif	1103630.226130	1103630.484719	1103631.174732	8.257471e-01	70	37	1103631.824306	1
122	2	78	95	kitchen	sun_aixorpehvfykdynp.tif	1103632.595143	1103632.853734	1103633.543842	7.423383e-01	85	none	NaN	NaN
122	2	79	81	kitchen	sun_aehawpgmrlhlvcow.tif	1103634.313511	1103634.572101	1103635.262136	8.174062e-01	71	none	NaN	NaN
122	2	80	76	kitchen	sun_acwjdupvyjsugpay.tif	1103636.031880	1103636.290469	1103636.980655	6.589295e-01	66	39	1103637.720331	1
122	2	81	61	kitchen	labelme_brsyyvweiuaazfr.tif	1103638.492652	1103638.751245	1103639.441215	8.090654e-01	51	none	NaN	NaN
122	2	82	98	kitchen	sun_akchetnepxlcxhsu.tif	1103640.202681	1103640.461270	1103641.151330	8.007245e-01	88	none	NaN	NaN
122	2	83	91	kitchen	sun_ahljzhgcdpomplvg.tif	1103641.921050	1103642.179640	1103642.869633	6.505886e-01	81	none	NaN	NaN
122	2	84	72	kitchen	sun_abpwyqmlzafvklqo.tif	1103643.639414	1103643.898005	1103644.588171	6.589295e-01	62	none	NaN	NaN
122	2	85	107	kitchen	sun_axyyrmzcupyhlivc.tif	1103645.357786	1103645.616374	1103646.306501	7.423383e-01	97	39	1103647.424298	1
122	2	86	104	kitchen	sun_auticobqsbwgoppi.tif	1103648.202274	1103648.460862	1103649.150836	6.839522e-01	94	none	NaN	NaN
122	2	87	108	kitchen	sun_aymvwlarqodbwuoc.tif	1103649.912296	1103650.170888	1103650.860930	7.256566e-01	98	none	NaN	NaN
122	2	88	93	kitchen	sun_ahspylgoovwmwvgk.tif	1103651.630663	1103651.889249	1103652.579220	8.257471e-01	83	none	NaN	NaN
122	2	89	86	kitchen	sun_aggjlwcdjsjcaemh.tif	1103653.340695	1103653.599282	1103654.289404	8.174062e-01	76	none	NaN	NaN
122	2	90	103	kitchen	sun_aunzlwrbjumxhwdj.tif	1103655.059061	1103655.317648	1103656.007817	6.505886e-01	93	none	NaN	NaN
122	2	91	73	kitchen	sun_abrcnpqqhmjwekyf.tif	1103656.777428	1103657.036018	1103657.726128	7.339974e-01	63	none	NaN	NaN
122	2	92	89	kitchen	sun_agzzivivdpnawacl.tif	1103658.495799	1103658.754386	1103659.444511	7.673610e-01	79	none	NaN	NaN
122	2	93	71	kitchen	sun_abftihopvusyfakt.tif	1103660.214166	1103660.472762	1103661.162848	6.756113e-01	61	none	NaN	NaN
122	2	94	85	kitchen	sun_afuyedyxivkhecmu.tif	1103661.932535	1103662.191124	1103662.881231	8.507698e-01	75	none	NaN	NaN
122	2	95	64	kitchen	sun_aadbddgrdsjugojn.tif	1103663.650902	1103663.909491	1103664.599577	6.672704e-01	54	none	NaN	NaN
122	2	96	110	kitchen	sun_azmutvzbxypaceni.tif	1103665.369274	1103665.627860	1103666.318025	8.424289e-01	100	none	NaN	NaN
122	2	97	70	kitchen	sun_abdxkyyxwfskuaqb.tif	1103667.087640	1103667.346230	1103668.036228	8.340880e-01	60	none	NaN	NaN
122	2	98	99	kitchen	sun_akcjzhbbjlbogpdi.tif	1103668.797668	1103669.056261	1103669.746307	7.840427e-01	89	none	NaN	NaN
122	2	99	79	kitchen	sun_admlmbcdswaszruo.tif	1103670.516039	1103670.774627	1103671.464621	8.090654e-01	69	none	NaN	NaN
122	2	100	69	kitchen	sun_abdenxonkemggwsq.tif	1103672.234405	1103672.492997	1103673.183151	7.256566e-01	59	none	NaN	NaN
122	3	1	27	bathroom	sun_ahcvzmoyaycdoftf.tif	1103685.397441	1103685.656032	1103686.471116	8.257471e-01	17	none	NaN	NaN
122	3	2	21	bathroom	sun_aggnnqpdorgxpvce.tif	1103687.232596	1103687.491182	1103688.306436	6.922930e-01	11	39	1103689.368142	1
122	3	3	19	bathroom	sun_aclfzgynxzxlbepz.tif	1103690.143806	1103690.402404	1103691.217535	8.257471e-01	9	none	NaN	NaN
122	3	4	46	bathroom	sun_apmqjbnwghzuhhzh.tif	1103691.987301	1103692.245890	1103693.061054	7.089748e-01	36	none	NaN	NaN
122	3	5	17	bathroom	sun_acegryoqftbzowsg.tif	1103693.830793	1103694.089385	1103694.904478	8.424289e-01	7	none	NaN	NaN
122	3	6	34	bathroom	sun_alkosphxlxwjwgjd.tif	1103695.665951	1103695.924536	1103696.739784	7.256566e-01	24	none	NaN	NaN
122	3	7	18	bathroom	sun_acgyywnybuveqsro.tif	1103697.509443	1103697.768025	1103698.583182	7.089748e-01	8	none	NaN	NaN
122	3	8	38	bathroom	sun_anhioqovhscjqqwb.tif	1103699.352931	1103699.611519	1103700.426782	6.756113e-01	28	none	NaN	NaN
122	3	9	50	bathroom	sun_aspsyogrekjtfozg.tif	1103701.196426	1103701.455016	1103702.270208	8.424289e-01	40	none	NaN	NaN
122	3	10	29	bathroom	sun_ahqjwnzgolcaoidx.tif	1103703.039919	1103703.298505	1103704.113623	7.089748e-01	19	37	1103704.952172	1
122	3	11	53	bathroom	sun_ausgutylgojavyoq.tif	1103705.725913	1103705.984496	1103706.799661	6.589295e-01	43	none	NaN	NaN
122	3	12	59	bathroom	sun_axyrejkiiaqiurjk.tif	1103707.569404	1103707.827992	1103708.643208	7.840427e-01	49	none	NaN	NaN
122	3	13	24	bathroom	sun_agrwbmhcpmfuwmsg.tif	1103709.412896	1103709.671487	1103710.486619	8.007245e-01	14	none	NaN	NaN
122	3	14	58	bathroom	sun_axxbkopsgyouuebh.tif	1103711.256389	1103711.514983	1103712.330166	7.506792e-01	48	none	NaN	NaN
122	3	15	31	bathroom	sun_akiytfaagpdsphgz.tif	1103713.099881	1103713.358473	1103714.173586	6.839522e-01	21	none	NaN	NaN
122	3	16	13	bathroom	sun_aavhrsfjbserjtht.tif	1103714.943372	1103715.201963	1103716.017257	7.590201e-01	3	none	NaN	NaN
122	3	17	54	bathroom	sun_auzqhkafidnkrwmo.tif	1103716.786899	1103717.045455	1103717.860778	8.340880e-01	44	37	1103718.840260	1
122	3	18	37	bathroom	sun_amzlamotzwfkwjco.tif	1103719.614658	1103719.873252	1103720.688516	7.339974e-01	27	none	NaN	NaN
122	3	19	49	bathroom	sun_asfwthctfqerjvxr.tif	1103721.458161	1103721.716750	1103722.531954	7.173157e-01	39	none	NaN	NaN
122	3	20	45	bathroom	sun_apkxzenqapsujocq.tif	1103723.301650	1103723.560241	1103724.375467	6.756113e-01	35	none	NaN	NaN
122	3	21	39	bathroom	sun_anryaplzeujmzfkd.tif	1103725.145147	1103725.403737	1103726.218813	6.505886e-01	29	none	NaN	NaN
122	3	22	51	bathroom	sun_atstyziqcmkahyxk.tif	1103726.980297	1103727.238890	1103728.054130	7.673610e-01	41	none	NaN	NaN
122	3	23	30	bathroom	sun_ajlawzvmubibwbpy.tif	1103728.823788	1103729.082379	1103729.897526	6.922930e-01	20	none	NaN	NaN
122	3	24	33	bathroom	sun_aljolscmmzydegqp.tif	1103730.667282	1103730.925874	1103731.741047	7.840427e-01	23	none	NaN	NaN
122	3	25	20	bathroom	sun_afcoljnjfoxjtgja.tif	1103732.510779	1103732.769367	1103733.584590	6.756113e-01	10	none	NaN	NaN
122	3	26	60	bathroom	sun_azqyogdvyhahyram.tif	1103734.354272	1103734.612863	1103735.427952	8.090654e-01	50	none	NaN	NaN
122	3	27	22	bathroom	sun_agguqiubmwhqqunb.tif	1103736.189422	1103736.448009	1103737.263103	7.673610e-01	12	39	1103738.568195	1
122	3	28	55	bathroom	sun_avhrdrntsqrjzccq.tif	1103739.342541	1103739.601132	1103740.416347	7.173157e-01	45	none	NaN	NaN
122	3	29	52	bathroom	sun_aunuadmjocsddsrl.tif	1103741.186034	1103741.444626	1103742.259866	7.006339e-01	42	none	NaN	NaN
122	3	30	14	bathroom	sun_abapwbhyhkfixyex.tif	1103743.029528	1103743.288115	1103744.103202	7.923836e-01	4	none	NaN	NaN
122	3	31	35	bathroom	sun_alotolagknyrgtsk.tif	1103744.864679	1103745.123267	1103745.938464	7.757018e-01	25	39	1103746.704197	1
122	3	32	11	bathroom	labelme_sfxiulhjbhlyiyt.tif	1103747.475594	1103747.734182	1103748.549308	7.339974e-01	1	none	NaN	NaN
122	3	33	48	bathroom	sun_aqrpegblszgcoujh.tif	1103749.319093	1103749.577676	1103750.392878	8.257471e-01	38	none	NaN	NaN
122	3	34	28	bathroom	sun_ahijqszoswveeyji.tif	1103751.162581	1103751.421177	1103752.236438	7.506792e-01	18	39	1103753.000267	1
122	3	35	57	bathroom	sun_axldvoqbuvuggfmq.tif	1103753.773502	1103754.032089	1103754.847227	7.923836e-01	47	none	NaN	NaN
122	3	36	26	bathroom	sun_ahaulkltgpkeeemi.tif	1103755.616992	1103755.875582	1103756.690728	7.256566e-01	16	none	NaN	NaN
122	3	37	23	bathroom	sun_aghyqhbptboemmoq.tif	1103757.460492	1103757.719075	1103758.534302	8.174062e-01	13	none	NaN	NaN
122	3	38	47	bathroom	sun_apynckhmoftszqoq.tif	1103759.303982	1103759.562564	1103760.377840	7.423383e-01	37	none	NaN	NaN
122	3	39	42	bathroom	sun_apeeialkgkuxddgh.tif	1103761.147474	1103761.406066	1103762.221192	7.673610e-01	32	39	1103763.032172	1
122	3	40	25	bathroom	sun_agyqfjcfkdcydepw.tif	1103763.808445	1103764.067033	1103764.882194	6.839522e-01	15	none	NaN	NaN
122	3	41	32	bathroom	sun_aleqenyvunhactkl.tif	1103765.651930	1103765.910520	1103766.725806	7.506792e-01	22	39	1103767.808193	1
122	3	42	12	bathroom	sun_aapitsgbtktqubfy.tif	1103768.579836	1103768.838424	1103769.653602	8.007245e-01	2	none	NaN	NaN
122	3	43	36	bathroom	sun_ambriybtogmepttm.tif	1103770.423324	1103770.681916	1103771.497003	7.006339e-01	26	none	NaN	NaN
122	3	44	44	bathroom	sun_apkruvsevgegsdwp.tif	1103772.258477	1103772.517068	1103773.332276	8.507698e-01	34	none	NaN	NaN
122	3	45	56	bathroom	sun_awnqiikzaispgmwo.tif	1103774.101970	1103774.360562	1103775.175683	6.756113e-01	46	none	NaN	NaN
122	3	46	15	bathroom	sun_abjtwfukuwddzted.tif	1103775.945459	1103776.204052	1103777.019332	8.424289e-01	5	none	NaN	NaN
122	3	47	16	bathroom	sun_acduarbnmmoglmiv.tif	1103777.788952	1103778.047545	1103778.862781	7.006339e-01	6	none	NaN	NaN
122	3	48	43	bathroom	sun_apjevzvycyhuqghb.tif	1103779.632447	1103779.891032	1103780.706126	7.757018e-01	33	none	NaN	NaN
122	3	49	40	bathroom	sun_aofnryafpsjimzsb.tif	1103781.467596	1103781.726183	1103782.541368	6.672704e-01	30	none	NaN	NaN
122	3	50	41	bathroom	sun_aoybiabnpadelefl.tif	1103783.311090	1103783.569678	1103784.384950	6.672704e-01	31	none	NaN	NaN
122	3	51	27	bathroom	sun_ahcvzmoyaycdoftf.tif	1103785.154580	1103785.413176	1103786.228342	8.340880e-01	17	37	1103787.016161	1
122	3	52	36	bathroom	sun_ambriybtogmepttm.tif	1103787.790528	1103788.049120	1103788.864196	8.340880e-01	26	none	NaN	NaN
122	3	53	37	bathroom	sun_amzlamotzwfkwjco.tif	1103789.625681	1103789.884267	1103790.699372	8.090654e-01	27	none	NaN	NaN
122	3	54	14	bathroom	sun_abapwbhyhkfixyex.tif	1103791.460831	1103791.719419	1103792.534506	8.007245e-01	4	none	NaN	NaN
122	3	55	40	bathroom	sun_aofnryafpsjimzsb.tif	1103793.295982	1103793.554568	1103794.369681	7.173157e-01	30	none	NaN	NaN
122	3	56	41	bathroom	sun_aoybiabnpadelefl.tif	1103795.139475	1103795.398063	1103796.213301	6.589295e-01	31	none	NaN	NaN
122	3	57	39	bathroom	sun_anryaplzeujmzfkd.tif	1103796.982966	1103797.241556	1103798.056712	6.839522e-01	29	none	NaN	NaN
122	3	58	43	bathroom	sun_apjevzvycyhuqghb.tif	1103798.826463	1103799.085050	1103799.900177	6.922930e-01	33	none	NaN	NaN
122	3	59	60	bathroom	sun_azqyogdvyhahyram.tif	1103800.669951	1103800.928540	1103801.743695	7.006339e-01	50	39	1103802.576337	1
122	3	60	38	bathroom	sun_anhioqovhscjqqwb.tif	1103803.347605	1103803.606183	1103804.421392	7.256566e-01	28	none	NaN	NaN
122	3	61	12	bathroom	sun_aapitsgbtktqubfy.tif	1103805.191097	1103805.449681	1103806.264879	7.423383e-01	2	none	NaN	NaN
122	3	62	11	bathroom	labelme_sfxiulhjbhlyiyt.tif	1103807.034591	1103807.293178	1103808.108263	7.757018e-01	1	none	NaN	NaN
122	3	63	30	bathroom	sun_ajlawzvmubibwbpy.tif	1103808.878080	1103809.136675	1103809.951802	8.174062e-01	20	none	NaN	NaN
122	3	64	28	bathroom	sun_ahijqszoswveeyji.tif	1103810.721574	1103810.980166	1103811.795406	6.505886e-01	18	none	NaN	NaN
122	3	65	48	bathroom	sun_aqrpegblszgcoujh.tif	1103812.565066	1103812.823653	1103813.638768	7.506792e-01	38	none	NaN	NaN
122	3	66	25	bathroom	sun_agyqfjcfkdcydepw.tif	1103814.408559	1103814.667148	1103815.482335	7.423383e-01	15	none	NaN	NaN
122	3	67	23	bathroom	sun_aghyqhbptboemmoq.tif	1103816.252053	1103816.510642	1103817.325743	6.922930e-01	13	none	NaN	NaN
122	3	68	16	bathroom	sun_acduarbnmmoglmiv.tif	1103818.087202	1103818.345791	1103819.161079	7.339974e-01	6	none	NaN	NaN
122	3	69	58	bathroom	sun_axxbkopsgyouuebh.tif	1103819.930696	1103820.189285	1103821.004557	8.257471e-01	48	none	NaN	NaN
122	3	70	21	bathroom	sun_aggnnqpdorgxpvce.tif	1103821.774189	1103822.032778	1103822.847972	8.174062e-01	11	none	NaN	NaN
122	3	71	26	bathroom	sun_ahaulkltgpkeeemi.tif	1103823.617680	1103823.876269	1103824.691391	8.090654e-01	16	none	NaN	NaN
122	3	72	34	bathroom	sun_alkosphxlxwjwgjd.tif	1103825.461171	1103825.719758	1103826.534858	6.505886e-01	24	none	NaN	NaN
122	3	73	52	bathroom	sun_aunuadmjocsddsrl.tif	1103827.296325	1103827.554915	1103828.370052	6.672704e-01	42	none	NaN	NaN
122	3	74	15	bathroom	sun_abjtwfukuwddzted.tif	1103829.139819	1103829.398406	1103830.213583	7.590201e-01	5	none	NaN	NaN
122	3	75	13	bathroom	sun_aavhrsfjbserjtht.tif	1103830.974965	1103831.233561	1103832.048842	7.673610e-01	3	none	NaN	NaN
122	3	76	46	bathroom	sun_apmqjbnwghzuhhzh.tif	1103832.818456	1103833.077049	1103833.892328	8.424289e-01	36	none	NaN	NaN
122	3	77	59	bathroom	sun_axyrejkiiaqiurjk.tif	1103834.661950	1103834.920546	1103835.735748	7.923836e-01	49	none	NaN	NaN
122	3	78	42	bathroom	sun_apeeialkgkuxddgh.tif	1103836.505445	1103836.764033	1103837.579177	7.840427e-01	32	none	NaN	NaN
122	3	79	24	bathroom	sun_agrwbmhcpmfuwmsg.tif	1103838.348936	1103838.607527	1103839.422691	8.007245e-01	14	none	NaN	NaN
122	3	80	35	bathroom	sun_alotolagknyrgtsk.tif	1103840.192434	1103840.451022	1103841.266152	7.173157e-01	25	37	1103842.152222	1
122	3	81	57	bathroom	sun_axldvoqbuvuggfmq.tif	1103842.928472	1103843.187054	1103844.002221	8.257471e-01	47	none	NaN	NaN
122	3	82	32	bathroom	sun_aleqenyvunhactkl.tif	1103844.771966	1103845.030559	1103845.845682	7.423383e-01	22	none	NaN	NaN
122	3	83	55	bathroom	sun_avhrdrntsqrjzccq.tif	1103846.615457	1103846.874047	1103847.689268	7.923836e-01	45	37	1103848.376274	1
122	3	84	22	bathroom	sun_agguqiubmwhqqunb.tif	1103849.151310	1103849.409889	1103850.225132	6.589295e-01	12	none	NaN	NaN
122	3	85	45	bathroom	sun_apkxzenqapsujocq.tif	1103850.994795	1103851.253389	1103852.068630	7.339974e-01	35	none	NaN	NaN
122	3	86	20	bathroom	sun_afcoljnjfoxjtgja.tif	1103852.838290	1103853.096877	1103853.912034	7.840427e-01	10	37	1103854.624352	1
122	3	87	19	bathroom	sun_aclfzgynxzxlbepz.tif	1103855.399179	1103855.657766	1103856.472986	7.590201e-01	9	none	NaN	NaN
122	3	88	31	bathroom	sun_akiytfaagpdsphgz.tif	1103857.242653	1103857.501240	1103858.316413	7.590201e-01	21	none	NaN	NaN
122	3	89	47	bathroom	sun_apynckhmoftszqoq.tif	1103859.086149	1103859.344731	1103860.159974	8.507698e-01	37	none	NaN	NaN
122	3	90	17	bathroom	sun_acegryoqftbzowsg.tif	1103860.929639	1103861.188224	1103862.003326	6.839522e-01	7	none	NaN	NaN
122	3	91	33	bathroom	sun_aljolscmmzydegqp.tif	1103862.764791	1103863.023375	1103863.838629	7.256566e-01	23	none	NaN	NaN
122	3	92	51	bathroom	sun_atstyziqcmkahyxk.tif	1103864.608278	1103864.866872	1103865.681966	6.672704e-01	41	37	1103866.320244	1
122	3	93	54	bathroom	sun_auzqhkafidnkrwmo.tif	1103867.094076	1103867.352666	1103868.167944	8.174062e-01	44	none	NaN	NaN
122	3	94	18	bathroom	sun_acgyywnybuveqsro.tif	1103868.937571	1103869.196160	1103870.011342	7.006339e-01	8	none	NaN	NaN
122	3	95	50	bathroom	sun_aspsyogrekjtfozg.tif	1103870.781063	1103871.039651	1103871.854946	7.089748e-01	40	none	NaN	NaN
122	3	96	53	bathroom	sun_ausgutylgojavyoq.tif	1103872.624553	1103872.883145	1103873.698313	7.757018e-01	43	none	NaN	NaN
122	3	97	56	bathroom	sun_awnqiikzaispgmwo.tif	1103874.459709	1103874.718295	1103875.533547	8.090654e-01	46	37	1103876.944160	1
122	3	98	49	bathroom	sun_asfwthctfqerjvxr.tif	1103877.721269	1103877.979859	1103878.795091	7.590201e-01	39	none	NaN	NaN
122	3	99	44	bathroom	sun_apkruvsevgegsdwp.tif	1103879.564763	1103879.823348	1103880.638496	6.589295e-01	34	none	NaN	NaN
122	3	100	29	bathroom	sun_ahqjwnzgolcaoidx.tif	1103881.408256	1103881.666842	1103882.482168	8.340880e-01	19	none	NaN	NaN
122	4	1	68	kitchen	sun_aaxxjlsuzvqlgylf.tif	1103921.656456	1103921.915041	1103922.613514	7.256566e-01	58	none	NaN	NaN
122	4	2	77	kitchen	sun_acxkpeoqbwcxfvip.tif	1103923.383164	1103923.641746	1103924.340242	7.006339e-01	67	none	NaN	NaN
122	4	3	79	kitchen	sun_admlmbcdswaszruo.tif	1103925.109873	1103925.368465	1103926.066885	8.174062e-01	69	none	NaN	NaN
122	4	4	86	kitchen	sun_aggjlwcdjsjcaemh.tif	1103926.836584	1103927.095174	1103927.793689	7.089748e-01	76	none	NaN	NaN
122	4	5	94	kitchen	sun_ahywdevtimnqcsln.tif	1103928.563289	1103928.821881	1103929.520253	7.006339e-01	84	none	NaN	NaN
122	4	6	95	kitchen	sun_aixorpehvfykdynp.tif	1103930.290000	1103930.548594	1103931.246933	6.756113e-01	85	none	NaN	NaN
122	4	7	75	kitchen	sun_acgtpgfybqjmzeyw.tif	1103932.016714	1103932.275303	1103932.973637	7.506792e-01	65	none	NaN	NaN
122	4	8	88	kitchen	sun_agubuxuukhzyzpdp.tif	1103933.743421	1103934.002015	1103934.700475	6.589295e-01	78	none	NaN	NaN
122	4	9	85	kitchen	sun_afuyedyxivkhecmu.tif	1103935.470131	1103935.728728	1103936.427234	7.840427e-01	75	37	1103937.232200	1
122	4	10	104	kitchen	sun_auticobqsbwgoppi.tif	1103938.005984	1103938.264570	1103938.963069	7.590201e-01	94	39	1103940.928124	1
122	4	11	72	kitchen	sun_abpwyqmlzafvklqo.tif	1103941.701305	1103941.959893	1103942.658308	7.923836e-01	62	none	NaN	NaN
122	4	12	66	kitchen	sun_aapllqyqlykszopd.tif	1103943.428017	1103943.686606	1103944.385092	7.256566e-01	56	none	NaN	NaN
122	4	13	69	kitchen	sun_abdenxonkemggwsq.tif	1103945.154724	1103945.413315	1103946.111788	8.090654e-01	59	39	1103947.056188	1
122	4	14	108	kitchen	sun_aymvwlarqodbwuoc.tif	1103947.832376	1103948.090966	1103948.789396	6.756113e-01	98	none	NaN	NaN
122	4	15	105	kitchen	sun_avszsnwsbuqfgzbn.tif	1103949.559093	1103949.817676	1103950.516208	7.506792e-01	95	none	NaN	NaN
122	4	16	78	kitchen	sun_adgqasybjyktddhj.tif	1103951.285801	1103951.544386	1103952.242846	8.007245e-01	68	none	NaN	NaN
122	4	17	101	kitchen	sun_aqeaevwwwjoqhzvl.tif	1103953.012507	1103953.271103	1103953.969525	8.507698e-01	91	39	1103954.712279	1
122	4	18	99	kitchen	sun_akcjzhbbjlbogpdi.tif	1103955.489962	1103955.748554	1103956.446863	6.839522e-01	89	none	NaN	NaN
122	4	19	90	kitchen	sun_ahdycvpopffkzzsu.tif	1103957.208335	1103957.466921	1103958.165405	7.423383e-01	80	none	NaN	NaN
122	4	20	70	kitchen	sun_abdxkyyxwfskuaqb.tif	1103958.935045	1103959.193634	1103959.891987	8.340880e-01	60	none	NaN	NaN
122	4	21	81	kitchen	sun_aehawpgmrlhlvcow.tif	1103960.661749	1103960.920341	1103961.618792	8.007245e-01	71	39	1103962.528296	1
122	4	22	106	kitchen	sun_awcpdzzznmweyyhv.tif	1103963.306042	1103963.564629	1103964.262998	8.090654e-01	96	none	NaN	NaN
122	4	23	93	kitchen	sun_ahspylgoovwmwvgk.tif	1103965.032751	1103965.291339	1103965.989755	6.505886e-01	83	none	NaN	NaN
122	4	24	97	kitchen	sun_ajkqhtgcbgpcwrwn.tif	1103966.759456	1103967.018046	1103967.716537	7.173157e-01	87	none	NaN	NaN
122	4	25	91	kitchen	sun_ahljzhgcdpomplvg.tif	1103968.486171	1103968.744758	1103969.443108	7.256566e-01	81	none	NaN	NaN
122	4	26	96	kitchen	sun_ajcbwwvdlsvjyzje.tif	1103970.212879	1103970.471468	1103971.169990	8.090654e-01	86	none	NaN	NaN
122	4	27	62	kitchen	labelme_kxvouciolcpqplr.tif	1103971.939591	1103972.198183	1103972.896553	7.757018e-01	52	none	NaN	NaN
122	4	28	109	kitchen	sun_aypmqwcualkenuoe.tif	1103973.666299	1103973.924887	1103974.623284	7.757018e-01	99	37	1103975.392373	1
122	4	29	76	kitchen	sun_acwjdupvyjsugpay.tif	1103976.168780	1103976.427370	1103977.125848	8.090654e-01	66	none	NaN	NaN
122	4	30	87	kitchen	sun_agorklincwxrdtga.tif	1103977.895488	1103978.154078	1103978.852574	8.424289e-01	77	none	NaN	NaN
122	4	31	102	kitchen	sun_auaiucuqpdausiva.tif	1103979.622196	1103979.880789	1103980.579259	8.340880e-01	92	none	NaN	NaN
122	4	32	110	kitchen	sun_azmutvzbxypaceni.tif	1103981.348910	1103981.607496	1103982.305947	7.673610e-01	100	39	1103983.112150	1
122	4	33	98	kitchen	sun_akchetnepxlcxhsu.tif	1103983.884751	1103984.143343	1103984.841688	6.672704e-01	88	none	NaN	NaN
122	4	34	100	kitchen	sun_amjjdeyrggfqgmom.tif	1103985.611467	1103985.870050	1103986.568419	7.339974e-01	90	37	1103987.280371	1
122	4	35	107	kitchen	sun_axyyrmzcupyhlivc.tif	1103988.055553	1103988.314142	1103989.012610	7.673610e-01	97	none	NaN	NaN
122	4	36	65	kitchen	sun_aamedkxepzlwuxes.tif	1103989.782264	1103990.040854	1103990.739304	8.174062e-01	55	none	NaN	NaN
122	4	37	64	kitchen	sun_aadbddgrdsjugojn.tif	1103991.508972	1103991.767564	1103992.465931	7.339974e-01	54	37	1103993.160087	1
122	4	38	89	kitchen	sun_agzzivivdpnawacl.tif	1103993.936375	1103994.194957	1103994.893362	8.424289e-01	79	none	NaN	NaN
122	4	39	103	kitchen	sun_aunzlwrbjumxhwdj.tif	1103995.663086	1103995.921675	1103996.620072	6.839522e-01	93	none	NaN	NaN
122	4	40	71	kitchen	sun_abftihopvusyfakt.tif	1103997.389799	1103997.648383	1103998.346709	7.423383e-01	61	none	NaN	NaN
122	4	41	83	kitchen	sun_aeqdocilnnpuvuhx.tif	1103999.108169	1103999.366755	1104000.065225	6.505886e-01	73	none	NaN	NaN
122	4	42	73	kitchen	sun_abrcnpqqhmjwekyf.tif	1104000.834876	1104001.093463	1104001.791976	6.505886e-01	63	none	NaN	NaN
122	4	43	84	kitchen	sun_aexklacwqwezaorf.tif	1104002.561585	1104002.820176	1104003.518665	7.173157e-01	74	none	NaN	NaN
122	4	44	92	kitchen	sun_ahpczsiumwwocjkv.tif	1104004.288297	1104004.546886	1104005.245466	7.673610e-01	82	none	NaN	NaN
122	4	45	82	kitchen	sun_aenotlpyftoioydp.tif	1104006.015006	1104006.273586	1104006.971968	8.257471e-01	72	39	1104008.544266	1
122	4	46	80	kitchen	sun_aegoxogugdkwpmpj.tif	1104009.318281	1104009.576870	1104010.275235	6.922930e-01	70	none	NaN	NaN
122	4	47	61	kitchen	labelme_brsyyvweiuaazfr.tif	1104011.044990	1104011.303579	1104012.001952	7.089748e-01	51	none	NaN	NaN
122	4	48	63	kitchen	labelme_rykdqxenmhulbdn.tif	1104012.771698	1104013.030291	1104013.728704	8.174062e-01	53	37	1104014.424167	1
122	4	49	67	kitchen	sun_aarfiyshqohlwkmo.tif	1104015.199103	1104015.457686	1104016.156161	7.006339e-01	57	none	NaN	NaN
122	4	50	74	kitchen	sun_acfmftudsenhrfhy.tif	1104016.925815	1104017.184398	1104017.882716	7.423383e-01	64	none	NaN	NaN
122	4	51	91	kitchen	sun_ahljzhgcdpomplvg.tif	1104018.644182	1104018.902774	1104019.602154	7.923836e-01	81	none	NaN	NaN
122	4	52	85	kitchen	sun_afuyedyxivkhecmu.tif	1104020.370895	1104020.629481	1104021.327963	8.257471e-01	75	none	NaN	NaN
122	4	53	78	kitchen	sun_adgqasybjyktddhj.tif	1104022.097602	1104022.356194	1104023.054545	6.756113e-01	68	none	NaN	NaN
122	4	54	92	kitchen	sun_ahpczsiumwwocjkv.tif	1104023.824315	1104024.082906	1104024.781377	6.589295e-01	82	none	NaN	NaN
122	4	55	87	kitchen	sun_agorklincwxrdtga.tif	1104025.551024	1104025.809611	1104026.508117	8.257471e-01	77	none	NaN	NaN
122	4	56	102	kitchen	sun_auaiucuqpdausiva.tif	1104027.277733	1104027.536326	1104028.234627	7.256566e-01	92	none	NaN	NaN
122	4	57	66	kitchen	sun_aapllqyqlykszopd.tif	1104028.996102	1104029.254694	1104029.953102	8.007245e-01	56	39	1104030.960307	1
122	4	58	106	kitchen	sun_awcpdzzznmweyyhv.tif	1104031.732145	1104031.990725	1104032.689152	7.089748e-01	96	none	NaN	NaN
122	4	59	64	kitchen	sun_aadbddgrdsjugojn.tif	1104033.458857	1104033.717441	1104034.415971	7.089748e-01	54	none	NaN	NaN
122	4	60	80	kitchen	sun_aegoxogugdkwpmpj.tif	1104035.185566	1104035.444157	1104036.142471	6.672704e-01	70	none	NaN	NaN
122	4	61	73	kitchen	sun_abrcnpqqhmjwekyf.tif	1104036.903936	1104037.162525	1104037.860874	7.673610e-01	63	none	NaN	NaN
122	4	62	105	kitchen	sun_avszsnwsbuqfgzbn.tif	1104038.630645	1104038.889235	1104039.587701	7.423383e-01	95	none	NaN	NaN
122	4	63	62	kitchen	labelme_kxvouciolcpqplr.tif	1104040.357356	1104040.615944	1104041.314357	7.173157e-01	52	none	NaN	NaN
122	4	64	89	kitchen	sun_agzzivivdpnawacl.tif	1104042.084067	1104042.342656	1104043.041062	6.672704e-01	79	none	NaN	NaN
122	4	65	103	kitchen	sun_aunzlwrbjumxhwdj.tif	1104043.810775	1104044.069362	1104044.767742	8.257471e-01	93	37	1104045.552170	1
122	4	66	108	kitchen	sun_aymvwlarqodbwuoc.tif	1104046.329938	1104046.588522	1104047.286888	8.424289e-01	98	none	NaN	NaN
122	4	67	72	kitchen	sun_abpwyqmlzafvklqo.tif	1104048.056649	1104048.315239	1104049.013668	7.590201e-01	62	none	NaN	NaN
122	4	68	70	kitchen	sun_abdxkyyxwfskuaqb.tif	1104049.783358	1104050.041947	1104050.740325	6.922930e-01	60	none	NaN	NaN
122	4	69	68	kitchen	sun_aaxxjlsuzvqlgylf.tif	1104051.510071	1104051.768656	1104052.467000	6.756113e-01	58	37	1104053.176162	1
122	4	70	110	kitchen	sun_azmutvzbxypaceni.tif	1104053.954154	1104054.212744	1104054.911250	7.506792e-01	100	none	NaN	NaN
122	4	71	107	kitchen	sun_axyyrmzcupyhlivc.tif	1104055.680866	1104055.939455	1104056.637948	6.922930e-01	97	none	NaN	NaN
122	4	72	97	kitchen	sun_ajkqhtgcbgpcwrwn.tif	1104057.407575	1104057.666166	1104058.364558	7.339974e-01	87	none	NaN	NaN
122	4	73	65	kitchen	sun_aamedkxepzlwuxes.tif	1104059.134283	1104059.392878	1104060.091227	7.590201e-01	55	39	1104060.935972	1
122	4	74	99	kitchen	sun_akcjzhbbjlbogpdi.tif	1104061.711834	1104061.970430	1104062.668899	6.839522e-01	89	none	NaN	NaN
122	4	75	94	kitchen	sun_ahywdevtimnqcsln.tif	1104063.438548	1104063.697143	1104064.395594	7.840427e-01	84	none	NaN	NaN
122	4	76	83	kitchen	sun_aeqdocilnnpuvuhx.tif	1104065.165264	1104065.423852	1104066.122181	8.340880e-01	73	none	NaN	NaN
122	4	77	86	kitchen	sun_aggjlwcdjsjcaemh.tif	1104066.891967	1104067.150560	1104067.848873	6.672704e-01	76	none	NaN	NaN
122	4	78	95	kitchen	sun_aixorpehvfykdynp.tif	1104068.610340	1104068.868929	1104069.567426	7.590201e-01	85	none	NaN	NaN
122	4	79	74	kitchen	sun_acfmftudsenhrfhy.tif	1104070.337049	1104070.595639	1104071.294008	7.590201e-01	64	none	NaN	NaN
122	4	80	77	kitchen	sun_acxkpeoqbwcxfvip.tif	1104072.063759	1104072.322349	1104073.020844	7.757018e-01	67	none	NaN	NaN
122	4	81	79	kitchen	sun_admlmbcdswaszruo.tif	1104073.790466	1104074.049059	1104074.747503	7.923836e-01	69	none	NaN	NaN
122	4	82	84	kitchen	sun_aexklacwqwezaorf.tif	1104075.517180	1104075.775766	1104076.474133	8.507698e-01	74	none	NaN	NaN
122	4	83	88	kitchen	sun_agubuxuukhzyzpdp.tif	1104077.243887	1104077.502478	1104078.200898	7.923836e-01	78	none	NaN	NaN
122	4	84	109	kitchen	sun_aypmqwcualkenuoe.tif	1104078.970604	1104079.229190	1104079.927589	8.424289e-01	99	none	NaN	NaN
122	4	85	63	kitchen	labelme_rykdqxenmhulbdn.tif	1104080.697310	1104080.955904	1104081.654326	6.589295e-01	53	none	NaN	NaN
122	4	86	101	kitchen	sun_aqeaevwwwjoqhzvl.tif	1104082.424021	1104082.682615	1104083.380995	8.340880e-01	91	none	NaN	NaN
122	4	87	93	kitchen	sun_ahspylgoovwmwvgk.tif	1104084.150733	1104084.409322	1104085.107736	7.840427e-01	83	none	NaN	NaN
122	4	88	81	kitchen	sun_aehawpgmrlhlvcow.tif	1104085.877441	1104086.136031	1104086.834556	7.339974e-01	71	none	NaN	NaN
122	4	89	90	kitchen	sun_ahdycvpopffkzzsu.tif	1104087.604155	1104087.862743	1104088.561110	8.257471e-01	80	none	NaN	NaN
122	4	90	98	kitchen	sun_akchetnepxlcxhsu.tif	1104089.330857	1104089.589448	1104090.287803	7.757018e-01	88	none	NaN	NaN
122	4	91	69	kitchen	sun_abdenxonkemggwsq.tif	1104091.057571	1104091.316160	1104092.014945	6.922930e-01	59	none	NaN	NaN
122	4	92	96	kitchen	sun_ajcbwwvdlsvjyzje.tif	1104092.784284	1104093.042870	1104093.741218	6.839522e-01	86	none	NaN	NaN
122	4	93	75	kitchen	sun_acgtpgfybqjmzeyw.tif	1104094.502650	1104094.761239	1104095.459631	8.174062e-01	65	none	NaN	NaN
122	4	94	76	kitchen	sun_acwjdupvyjsugpay.tif	1104096.229359	1104096.487948	1104097.186327	7.173157e-01	66	none	NaN	NaN
122	4	95	104	kitchen	sun_auticobqsbwgoppi.tif	1104097.956073	1104098.214663	1104098.913141	8.007245e-01	94	none	NaN	NaN
122	4	96	82	kitchen	sun_aenotlpyftoioydp.tif	1104099.682781	1104099.941371	1104100.639873	7.840427e-01	72	none	NaN	NaN
122	4	97	61	kitchen	labelme_brsyyvweiuaazfr.tif	1104101.409490	1104101.668082	1104102.366454	7.006339e-01	51	none	NaN	NaN
122	4	98	71	kitchen	sun_abftihopvusyfakt.tif	1104103.136203	1104103.394793	1104104.093222	6.589295e-01	61	none	NaN	NaN
122	4	99	67	kitchen	sun_aarfiyshqohlwkmo.tif	1104104.862913	1104105.121501	1104105.819995	7.006339e-01	57	none	NaN	NaN
122	4	100	100	kitchen	sun_amjjdeyrggfqgmom.tif	1104106.589621	1104106.848210	1104107.546736	7.506792e-01	90	none	NaN	NaN
122	5	1	47	bathroom	sun_apynckhmoftszqoq.tif	1104138.296026	1104138.554617	1104139.261471	7.590201e-01	37	none	NaN	NaN
122	5	2	55	bathroom	sun_avhrdrntsqrjzccq.tif	1104140.031071	1104140.289667	1104140.996473	6.505886e-01	45	39	1104142.120188	1
122	5	3	45	bathroom	sun_apkxzenqapsujocq.tif	1104142.892243	1104143.150836	1104143.857666	7.423383e-01	35	none	NaN	NaN
122	5	4	41	bathroom	sun_aoybiabnpadelefl.tif	1104144.627298	1104144.885888	1104145.592624	7.089748e-01	31	none	NaN	NaN
122	5	5	21	bathroom	sun_aggnnqpdorgxpvce.tif	1104146.362287	1104146.620933	1104147.327735	7.173157e-01	11	none	NaN	NaN
122	5	6	36	bathroom	sun_ambriybtogmepttm.tif	1104148.097402	1104148.355992	1104149.062797	8.507698e-01	26	none	NaN	NaN
122	5	7	24	bathroom	sun_agrwbmhcpmfuwmsg.tif	1104149.832454	1104150.091046	1104150.797783	6.756113e-01	14	none	NaN	NaN
122	5	8	37	bathroom	sun_amzlamotzwfkwjco.tif	1104151.567501	1104151.826093	1104152.532832	7.006339e-01	27	none	NaN	NaN
122	5	9	20	bathroom	sun_afcoljnjfoxjtgja.tif	1104153.302558	1104153.561142	1104154.267803	7.256566e-01	10	none	NaN	NaN
122	5	10	40	bathroom	sun_aofnryafpsjimzsb.tif	1104155.029264	1104155.287854	1104155.994678	7.506792e-01	30	none	NaN	NaN
122	5	11	42	bathroom	sun_apeeialkgkuxddgh.tif	1104156.764321	1104157.022912	1104157.729675	8.090654e-01	32	none	NaN	NaN
122	5	12	13	bathroom	sun_aavhrsfjbserjtht.tif	1104158.499369	1104158.757956	1104159.464656	8.174062e-01	3	none	NaN	NaN
122	5	13	11	bathroom	labelme_sfxiulhjbhlyiyt.tif	1104160.234419	1104160.493010	1104161.199874	7.256566e-01	1	none	NaN	NaN
122	5	14	34	bathroom	sun_alkosphxlxwjwgjd.tif	1104161.969476	1104162.228064	1104162.934891	6.589295e-01	24	37	1104163.696383	1
122	5	15	51	bathroom	sun_atstyziqcmkahyxk.tif	1104164.471947	1104164.730540	1104165.437350	7.256566e-01	41	39	1104167.480223	1
122	5	16	32	bathroom	sun_aleqenyvunhactkl.tif	1104168.250690	1104168.509285	1104169.216015	7.840427e-01	22	none	NaN	NaN
122	5	17	26	bathroom	sun_ahaulkltgpkeeemi.tif	1104169.985748	1104170.244336	1104170.951025	7.923836e-01	16	none	NaN	NaN
122	5	18	33	bathroom	sun_aljolscmmzydegqp.tif	1104171.720801	1104171.979391	1104172.686048	7.006339e-01	23	37	1104173.800331	1
122	5	19	28	bathroom	sun_ahijqszoswveeyji.tif	1104174.573620	1104174.832207	1104175.538966	7.006339e-01	18	none	NaN	NaN
122	5	20	19	bathroom	sun_aclfzgynxzxlbepz.tif	1104176.308676	1104176.567268	1104177.274124	7.590201e-01	9	none	NaN	NaN
122	5	21	35	bathroom	sun_alotolagknyrgtsk.tif	1104178.043729	1104178.302321	1104179.009045	7.173157e-01	25	none	NaN	NaN
122	5	22	58	bathroom	sun_axxbkopsgyouuebh.tif	1104179.778781	1104180.037373	1104180.744231	8.507698e-01	48	none	NaN	NaN
122	5	23	27	bathroom	sun_ahcvzmoyaycdoftf.tif	1104181.513830	1104181.772420	1104182.479240	7.173157e-01	17	none	NaN	NaN
122	5	24	23	bathroom	sun_aghyqhbptboemmoq.tif	1104183.248881	1104183.507474	1104184.214279	8.090654e-01	13	none	NaN	NaN
122	5	25	56	bathroom	sun_awnqiikzaispgmwo.tif	1104184.983933	1104185.242524	1104185.949238	8.174062e-01	46	none	NaN	NaN
122	5	26	15	bathroom	sun_abjtwfukuwddzted.tif	1104186.718985	1104186.977578	1104187.684302	7.423383e-01	5	none	NaN	NaN
122	5	27	48	bathroom	sun_aqrpegblszgcoujh.tif	1104188.454034	1104188.712633	1104189.419386	8.424289e-01	38	none	NaN	NaN
122	5	28	18	bathroom	sun_acgyywnybuveqsro.tif	1104190.189089	1104190.447682	1104191.154373	8.174062e-01	8	none	NaN	NaN
122	5	29	60	bathroom	sun_azqyogdvyhahyram.tif	1104191.924143	1104192.182736	1104192.889377	8.007245e-01	50	none	NaN	NaN
122	5	30	46	bathroom	sun_apmqjbnwghzuhhzh.tif	1104193.650848	1104193.909443	1104194.616099	6.756113e-01	36	none	NaN	NaN
122	5	31	30	bathroom	sun_ajlawzvmubibwbpy.tif	1104195.385902	1104195.644490	1104196.351387	6.589295e-01	20	none	NaN	NaN
122	5	32	31	bathroom	sun_akiytfaagpdsphgz.tif	1104197.120957	1104197.379549	1104198.086294	8.424289e-01	21	none	NaN	NaN
122	5	33	16	bathroom	sun_acduarbnmmoglmiv.tif	1104198.856009	1104199.114600	1104199.821288	6.672704e-01	6	none	NaN	NaN
122	5	34	29	bathroom	sun_ahqjwnzgolcaoidx.tif	1104200.591058	1104200.849653	1104201.556501	7.089748e-01	19	37	1104202.464321	0
122	5	35	49	bathroom	sun_asfwthctfqerjvxr.tif	1104203.235353	1104203.493937	1104204.200715	7.673610e-01	39	none	NaN	NaN
122	5	36	43	bathroom	sun_apjevzvycyhuqghb.tif	1104204.970400	1104205.228992	1104205.935730	8.007245e-01	33	none	NaN	NaN
122	5	37	22	bathroom	sun_agguqiubmwhqqunb.tif	1104206.705447	1104206.964042	1104207.670765	7.006339e-01	12	none	NaN	NaN
122	5	38	17	bathroom	sun_acegryoqftbzowsg.tif	1104208.440504	1104208.699088	1104209.405913	6.672704e-01	7	none	NaN	NaN
122	5	39	44	bathroom	sun_apkruvsevgegsdwp.tif	1104210.175557	1104210.434147	1104211.140947	7.757018e-01	34	39	1104211.920255	1
122	5	40	52	bathroom	sun_aunuadmjocsddsrl.tif	1104212.694715	1104212.953305	1104213.660028	8.007245e-01	42	none	NaN	NaN
122	5	41	59	bathroom	sun_axyrejkiiaqiurjk.tif	1104214.429770	1104214.688356	1104215.395100	8.007245e-01	49	none	NaN	NaN
122	5	42	53	bathroom	sun_ausgutylgojavyoq.tif	1104216.164820	1104216.423409	1104217.130242	7.089748e-01	43	none	NaN	NaN
122	5	43	12	bathroom	sun_aapitsgbtktqubfy.tif	1104217.899870	1104218.158463	1104218.865216	6.589295e-01	2	none	NaN	NaN
122	5	44	25	bathroom	sun_agyqfjcfkdcydepw.tif	1104219.634925	1104219.893514	1104220.600381	7.673610e-01	15	none	NaN	NaN
122	5	45	14	bathroom	sun_abapwbhyhkfixyex.tif	1104221.369975	1104221.628571	1104222.335380	7.590201e-01	4	none	NaN	NaN
122	5	46	54	bathroom	sun_auzqhkafidnkrwmo.tif	1104223.105028	1104223.363620	1104224.070350	8.090654e-01	44	none	NaN	NaN
122	5	47	39	bathroom	sun_anryaplzeujmzfkd.tif	1104224.840078	1104225.098666	1104225.805518	7.840427e-01	29	none	NaN	NaN
122	5	48	38	bathroom	sun_anhioqovhscjqqwb.tif	1104226.575133	1104226.833723	1104227.540507	6.756113e-01	28	none	NaN	NaN
122	5	49	57	bathroom	sun_axldvoqbuvuggfmq.tif	1104228.310182	1104228.568772	1104229.275623	7.757018e-01	47	none	NaN	NaN
122	5	50	50	bathroom	sun_aspsyogrekjtfozg.tif	1104230.045233	1104230.303828	1104231.010529	8.090654e-01	40	none	NaN	NaN
122	5	51	50	bathroom	sun_aspsyogrekjtfozg.tif	1104231.780290	1104232.038876	1104232.745593	7.673610e-01	40	none	NaN	NaN
122	5	52	58	bathroom	sun_axxbkopsgyouuebh.tif	1104233.506997	1104233.765587	1104234.472350	8.257471e-01	48	none	NaN	NaN
122	5	53	13	bathroom	sun_aavhrsfjbserjtht.tif	1104235.242048	1104235.500641	1104236.207325	8.257471e-01	3	none	NaN	NaN
122	5	54	28	bathroom	sun_ahijqszoswveeyji.tif	1104236.968762	1104237.227347	1104237.934214	7.423383e-01	18	none	NaN	NaN
122	5	55	31	bathroom	sun_akiytfaagpdsphgz.tif	1104238.703810	1104238.962402	1104239.669061	7.590201e-01	21	none	NaN	NaN
122	5	56	14	bathroom	sun_abapwbhyhkfixyex.tif	1104240.430521	1104240.689112	1104241.395857	8.340880e-01	4	none	NaN	NaN
122	5	57	26	bathroom	sun_ahaulkltgpkeeemi.tif	1104242.165572	1104242.424161	1104243.130897	7.339974e-01	16	none	NaN	NaN
122	5	58	45	bathroom	sun_apkxzenqapsujocq.tif	1104243.900625	1104244.159208	1104244.865987	8.257471e-01	35	none	NaN	NaN
122	5	59	52	bathroom	sun_aunuadmjocsddsrl.tif	1104245.635676	1104245.894271	1104246.601019	7.840427e-01	42	none	NaN	NaN
122	5	60	15	bathroom	sun_abjtwfukuwddzted.tif	1104247.370729	1104247.629317	1104248.336154	8.424289e-01	5	none	NaN	NaN
122	5	61	42	bathroom	sun_apeeialkgkuxddgh.tif	1104249.105777	1104249.364369	1104250.071126	8.340880e-01	32	none	NaN	NaN
122	5	62	32	bathroom	sun_aleqenyvunhactkl.tif	1104250.840831	1104251.099420	1104251.806227	8.340880e-01	22	none	NaN	NaN
122	5	63	34	bathroom	sun_alkosphxlxwjwgjd.tif	1104252.575883	1104252.834476	1104253.541194	7.757018e-01	24	none	NaN	NaN
122	5	64	16	bathroom	sun_acduarbnmmoglmiv.tif	1104254.310936	1104254.569523	1104255.276192	8.257471e-01	6	none	NaN	NaN
122	5	65	44	bathroom	sun_apkruvsevgegsdwp.tif	1104256.037645	1104256.296239	1104257.002880	7.590201e-01	34	none	NaN	NaN
122	5	66	36	bathroom	sun_ambriybtogmepttm.tif	1104257.772696	1104258.031287	1104258.738025	7.506792e-01	26	none	NaN	NaN
122	5	67	27	bathroom	sun_ahcvzmoyaycdoftf.tif	1104259.507754	1104259.766338	1104260.473137	6.839522e-01	17	none	NaN	NaN
122	5	68	33	bathroom	sun_aljolscmmzydegqp.tif	1104261.242803	1104261.501385	1104262.208155	8.174062e-01	23	39	1104263.184220	1
122	5	69	49	bathroom	sun_asfwthctfqerjvxr.tif	1104263.962159	1104264.220745	1104264.927603	6.922930e-01	39	none	NaN	NaN
122	5	70	46	bathroom	sun_apmqjbnwghzuhhzh.tif	1104265.697215	1104265.955805	1104266.662648	6.589295e-01	36	39	1104267.536191	1
122	5	71	60	bathroom	sun_azqyogdvyhahyram.tif	1104268.308133	1104268.566724	1104269.273397	6.922930e-01	50	37	1104270.168410	1
122	5	72	56	bathroom	sun_awnqiikzaispgmwo.tif	1104270.944079	1104271.202667	1104271.909356	8.340880e-01	46	none	NaN	NaN
122	5	73	53	bathroom	sun_ausgutylgojavyoq.tif	1104272.679128	1104272.937718	1104273.644529	7.923836e-01	43	none	NaN	NaN
122	5	74	12	bathroom	sun_aapitsgbtktqubfy.tif	1104274.405840	1104274.664429	1104275.371313	7.923836e-01	2	none	NaN	NaN
122	5	75	38	bathroom	sun_anhioqovhscjqqwb.tif	1104276.140893	1104276.399478	1104277.106338	6.922930e-01	28	none	NaN	NaN
122	5	76	47	bathroom	sun_apynckhmoftszqoq.tif	1104277.875941	1104278.134529	1104278.841213	6.922930e-01	37	none	NaN	NaN
122	5	77	55	bathroom	sun_avhrdrntsqrjzccq.tif	1104279.610989	1104279.869585	1104280.576359	6.839522e-01	45	none	NaN	NaN
122	5	78	29	bathroom	sun_ahqjwnzgolcaoidx.tif	1104281.346046	1104281.604641	1104282.311400	8.424289e-01	19	none	NaN	NaN
122	5	79	20	bathroom	sun_afcoljnjfoxjtgja.tif	1104283.081101	1104283.339683	1104284.046535	7.840427e-01	10	37	1104284.736156	1
122	5	80	59	bathroom	sun_axyrejkiiaqiurjk.tif	1104285.508503	1104285.767090	1104286.473805	6.505886e-01	49	none	NaN	NaN
122	5	81	39	bathroom	sun_anryaplzeujmzfkd.tif	1104287.243556	1104287.502142	1104288.208815	7.256566e-01	29	none	NaN	NaN
122	5	82	18	bathroom	sun_acgyywnybuveqsro.tif	1104288.970269	1104289.228859	1104289.935693	7.339974e-01	8	none	NaN	NaN
122	5	83	21	bathroom	sun_aggnnqpdorgxpvce.tif	1104290.705314	1104290.963925	1104291.670617	7.089748e-01	11	none	NaN	NaN
122	5	84	37	bathroom	sun_amzlamotzwfkwjco.tif	1104292.440364	1104292.698958	1104293.405647	7.173157e-01	27	39	1104294.208367	1
122	5	85	11	bathroom	labelme_sfxiulhjbhlyiyt.tif	1104294.984553	1104295.243142	1104295.949790	7.339974e-01	1	39	1104297.712317	0
122	5	86	35	bathroom	sun_alotolagknyrgtsk.tif	1104298.488027	1104298.746618	1104299.453361	7.506792e-01	25	37	1104300.184351	1
122	5	87	30	bathroom	sun_ajlawzvmubibwbpy.tif	1104300.957135	1104301.215728	1104301.922519	7.673610e-01	20	none	NaN	NaN
122	5	88	57	bathroom	sun_axldvoqbuvuggfmq.tif	1104302.692191	1104302.950782	1104303.657520	6.839522e-01	47	none	NaN	NaN
122	5	89	22	bathroom	sun_agguqiubmwhqqunb.tif	1104304.427239	1104304.685829	1104305.392639	6.756113e-01	12	none	NaN	NaN
122	5	90	19	bathroom	sun_aclfzgynxzxlbepz.tif	1104306.153953	1104306.412543	1104307.119204	7.339974e-01	9	none	NaN	NaN
122	5	91	25	bathroom	sun_agyqfjcfkdcydepw.tif	1104307.880664	1104308.139253	1104308.846110	6.672704e-01	15	37	1104309.672291	1
122	5	92	43	bathroom	sun_apjevzvycyhuqghb.tif	1104310.449876	1104310.708462	1104311.415190	6.672704e-01	33	none	NaN	NaN
122	5	93	54	bathroom	sun_auzqhkafidnkrwmo.tif	1104312.184925	1104312.443516	1104313.150257	7.757018e-01	44	none	NaN	NaN
122	5	94	51	bathroom	sun_atstyziqcmkahyxk.tif	1104313.919973	1104314.178564	1104314.885389	7.423383e-01	41	none	NaN	NaN
122	5	95	24	bathroom	sun_agrwbmhcpmfuwmsg.tif	1104315.655025	1104315.913622	1104316.620444	6.839522e-01	14	none	NaN	NaN
122	5	96	23	bathroom	sun_aghyqhbptboemmoq.tif	1104317.390080	1104317.648671	1104318.355439	7.006339e-01	13	39	1104319.032208	1
122	5	97	40	bathroom	sun_aofnryafpsjimzsb.tif	1104319.809145	1104320.067737	1104320.774562	6.505886e-01	30	none	NaN	NaN
122	5	98	41	bathroom	sun_aoybiabnpadelefl.tif	1104321.544198	1104321.802784	1104322.509582	7.506792e-01	31	none	NaN	NaN
122	5	99	48	bathroom	sun_aqrpegblszgcoujh.tif	1104323.279244	1104323.537838	1104324.244631	7.923836e-01	38	none	NaN	NaN
122	5	100	17	bathroom	sun_acegryoqftbzowsg.tif	1104325.014296	1104325.272888	1104325.979609	8.257471e-01	7	none	NaN	NaN
122	6	1	64	kitchen	sun_aadbddgrdsjugojn.tif	1104393.774071	1104394.032662	1104394.772752	8.424289e-01	54	none	NaN	NaN
122	6	2	81	kitchen	sun_aehawpgmrlhlvcow.tif	1104395.542493	1104395.801081	1104396.541177	7.089748e-01	71	none	NaN	NaN
122	6	3	108	kitchen	sun_aymvwlarqodbwuoc.tif	1104397.310906	1104397.569502	1104398.309625	6.839522e-01	98	none	NaN	NaN
122	6	4	65	kitchen	sun_aamedkxepzlwuxes.tif	1104399.079324	1104399.337917	1104400.078053	8.257471e-01	55	none	NaN	NaN
122	6	5	87	kitchen	sun_agorklincwxrdtga.tif	1104400.847766	1104401.106335	1104401.846473	8.174062e-01	77	none	NaN	NaN
122	6	6	90	kitchen	sun_ahdycvpopffkzzsu.tif	1104402.616164	1104402.874753	1104403.614843	7.506792e-01	80	none	NaN	NaN
122	6	7	99	kitchen	sun_akcjzhbbjlbogpdi.tif	1104404.384581	1104404.643167	1104405.383350	7.673610e-01	89	39	1104406.264331	1
122	6	8	93	kitchen	sun_ahspylgoovwmwvgk.tif	1104407.037213	1104407.295800	1104408.035900	7.006339e-01	83	none	NaN	NaN
122	6	9	62	kitchen	labelme_kxvouciolcpqplr.tif	1104408.805654	1104409.064218	1104409.804382	6.672704e-01	52	none	NaN	NaN
122	6	10	69	kitchen	sun_abdenxonkemggwsq.tif	1104410.574046	1104410.832633	1104411.572659	6.839522e-01	59	none	NaN	NaN
122	6	11	98	kitchen	sun_akchetnepxlcxhsu.tif	1104412.334121	1104412.592706	1104413.332909	7.840427e-01	88	none	NaN	NaN
122	6	12	106	kitchen	sun_awcpdzzznmweyyhv.tif	1104414.102540	1104414.361127	1104415.101258	7.923836e-01	96	none	NaN	NaN
122	6	13	109	kitchen	sun_aypmqwcualkenuoe.tif	1104415.870957	1104416.129547	1104416.869578	6.922930e-01	99	none	NaN	NaN
122	6	14	100	kitchen	sun_amjjdeyrggfqgmom.tif	1104417.639373	1104417.897968	1104418.638098	7.173157e-01	90	none	NaN	NaN
122	6	15	89	kitchen	sun_agzzivivdpnawacl.tif	1104419.407793	1104419.666382	1104420.406403	8.257471e-01	79	none	NaN	NaN
122	6	16	103	kitchen	sun_aunzlwrbjumxhwdj.tif	1104421.167872	1104421.426463	1104422.166508	6.922930e-01	93	none	NaN	NaN
122	6	17	78	kitchen	sun_adgqasybjyktddhj.tif	1104422.936293	1104423.194877	1104423.934996	8.340880e-01	68	none	NaN	NaN
122	6	18	68	kitchen	sun_aaxxjlsuzvqlgylf.tif	1104424.704711	1104424.963301	1104425.703510	8.257471e-01	58	none	NaN	NaN
122	6	19	71	kitchen	sun_abftihopvusyfakt.tif	1104426.473127	1104426.731718	1104427.471939	7.089748e-01	61	none	NaN	NaN
122	6	20	105	kitchen	sun_avszsnwsbuqfgzbn.tif	1104428.241542	1104428.500134	1104429.240301	6.505886e-01	95	37	1104430.000122	0
122	6	21	73	kitchen	sun_abrcnpqqhmjwekyf.tif	1104430.777392	1104431.035984	1104431.776199	7.590201e-01	63	none	NaN	NaN
122	6	22	67	kitchen	sun_aarfiyshqohlwkmo.tif	1104432.545809	1104432.804396	1104433.544472	7.757018e-01	57	none	NaN	NaN
122	6	23	86	kitchen	sun_aggjlwcdjsjcaemh.tif	1104434.314225	1104434.572813	1104435.313041	8.007245e-01	76	none	NaN	NaN
122	6	24	74	kitchen	sun_acfmftudsenhrfhy.tif	1104436.082647	1104436.341233	1104437.081318	6.589295e-01	64	none	NaN	NaN
122	6	25	66	kitchen	sun_aapllqyqlykszopd.tif	1104437.851064	1104438.109652	1104438.849871	7.173157e-01	56	none	NaN	NaN
122	6	26	95	kitchen	sun_aixorpehvfykdynp.tif	1104439.619485	1104439.878070	1104440.618274	7.590201e-01	85	none	NaN	NaN
122	6	27	70	kitchen	sun_abdxkyyxwfskuaqb.tif	1104441.387898	1104441.646490	1104442.386628	8.340880e-01	60	39	1104443.272196	1
122	6	28	75	kitchen	sun_acgtpgfybqjmzeyw.tif	1104444.048865	1104444.307457	1104445.047495	8.424289e-01	65	none	NaN	NaN
122	6	29	94	kitchen	sun_ahywdevtimnqcsln.tif	1104445.808947	1104446.067536	1104446.807681	7.423383e-01	84	none	NaN	NaN
122	6	30	85	kitchen	sun_afuyedyxivkhecmu.tif	1104447.577362	1104447.835954	1104448.575968	7.840427e-01	75	none	NaN	NaN
122	6	31	107	kitchen	sun_axyyrmzcupyhlivc.tif	1104449.337435	1104449.596031	1104450.336110	8.174062e-01	97	none	NaN	NaN
122	6	32	91	kitchen	sun_ahljzhgcdpomplvg.tif	1104451.105858	1104451.364449	1104452.104458	7.256566e-01	81	none	NaN	NaN
122	6	33	96	kitchen	sun_ajcbwwvdlsvjyzje.tif	1104452.865938	1104453.124522	1104453.864602	7.757018e-01	86	39	1104454.552158	1
122	6	34	82	kitchen	sun_aenotlpyftoioydp.tif	1104455.326701	1104455.585294	1104456.325353	7.590201e-01	72	37	1104457.088175	1
122	6	35	102	kitchen	sun_auaiucuqpdausiva.tif	1104457.862572	1104458.121142	1104458.861288	8.007245e-01	92	37	1104459.544212	1
122	6	36	72	kitchen	sun_abpwyqmlzafvklqo.tif	1104460.314980	1104460.573569	1104461.313744	7.256566e-01	62	none	NaN	NaN
122	6	37	84	kitchen	sun_aexklacwqwezaorf.tif	1104462.083398	1104462.341987	1104463.082057	7.673610e-01	74	39	1104464.048295	1
122	6	38	101	kitchen	sun_aqeaevwwwjoqhzvl.tif	1104464.819442	1104465.078023	1104465.818169	7.673610e-01	91	none	NaN	NaN
122	6	39	110	kitchen	sun_azmutvzbxypaceni.tif	1104466.587857	1104466.846450	1104467.586499	6.589295e-01	100	none	NaN	NaN
122	6	40	83	kitchen	sun_aeqdocilnnpuvuhx.tif	1104468.356278	1104468.614869	1104469.354962	8.007245e-01	73	none	NaN	NaN
122	6	41	77	kitchen	sun_acxkpeoqbwcxfvip.tif	1104470.124696	1104470.383288	1104471.123471	8.257471e-01	67	none	NaN	NaN
122	6	42	63	kitchen	labelme_rykdqxenmhulbdn.tif	1104471.893114	1104472.151707	1104472.891723	6.505886e-01	53	none	NaN	NaN
122	6	43	80	kitchen	sun_aegoxogugdkwpmpj.tif	1104473.661532	1104473.920119	1104474.660150	7.089748e-01	70	none	NaN	NaN
122	6	44	79	kitchen	sun_admlmbcdswaszruo.tif	1104475.421608	1104475.680199	1104476.420340	7.923836e-01	69	37	1104477.080442	1
122	6	45	61	kitchen	labelme_brsyyvweiuaazfr.tif	1104477.857380	1104478.115944	1104478.856031	7.006339e-01	51	none	NaN	NaN
122	6	46	97	kitchen	sun_ajkqhtgcbgpcwrwn.tif	1104479.617430	1104479.876023	1104480.616181	7.089748e-01	87	none	NaN	NaN
122	6	47	88	kitchen	sun_agubuxuukhzyzpdp.tif	1104481.385850	1104481.644442	1104482.384537	7.339974e-01	78	none	NaN	NaN
122	6	48	104	kitchen	sun_auticobqsbwgoppi.tif	1104483.154269	1104483.412863	1104484.152954	7.757018e-01	94	none	NaN	NaN
122	6	49	76	kitchen	sun_acwjdupvyjsugpay.tif	1104484.922687	1104485.181278	1104485.921384	7.590201e-01	66	none	NaN	NaN
122	6	50	92	kitchen	sun_ahpczsiumwwocjkv.tif	1104486.682766	1104486.941355	1104487.681490	7.173157e-01	82	none	NaN	NaN
122	6	51	105	kitchen	sun_avszsnwsbuqfgzbn.tif	1104488.451183	1104488.709774	1104489.449963	8.257471e-01	95	none	NaN	NaN
122	6	52	92	kitchen	sun_ahpczsiumwwocjkv.tif	1104490.219602	1104490.478187	1104491.218251	8.340880e-01	82	none	NaN	NaN
122	6	53	83	kitchen	sun_aeqdocilnnpuvuhx.tif	1104491.987975	1104492.246608	1104492.986635	7.339974e-01	73	none	NaN	NaN
122	6	54	94	kitchen	sun_ahywdevtimnqcsln.tif	1104493.756438	1104494.015027	1104494.755042	8.090654e-01	84	none	NaN	NaN
122	6	55	101	kitchen	sun_aqeaevwwwjoqhzvl.tif	1104495.516514	1104495.775101	1104496.515285	7.006339e-01	91	none	NaN	NaN
122	6	56	81	kitchen	sun_aehawpgmrlhlvcow.tif	1104497.284933	1104497.543523	1104498.283589	6.839522e-01	71	none	NaN	NaN
122	6	57	87	kitchen	sun_agorklincwxrdtga.tif	1104499.053353	1104499.311940	1104500.051964	8.090654e-01	77	none	NaN	NaN
122	6	58	89	kitchen	sun_agzzivivdpnawacl.tif	1104500.813428	1104501.072019	1104501.812044	7.256566e-01	79	none	NaN	NaN
122	6	59	74	kitchen	sun_acfmftudsenhrfhy.tif	1104502.573511	1104502.832093	1104503.572244	8.007245e-01	64	none	NaN	NaN
122	6	60	67	kitchen	sun_aarfiyshqohlwkmo.tif	1104504.341922	1104504.600516	1104505.340540	6.922930e-01	57	none	NaN	NaN
122	6	61	63	kitchen	labelme_rykdqxenmhulbdn.tif	1104506.110344	1104506.368931	1104507.109146	6.672704e-01	53	none	NaN	NaN
122	6	62	84	kitchen	sun_aexklacwqwezaorf.tif	1104507.878761	1104508.137351	1104508.877570	6.589295e-01	74	none	NaN	NaN
122	6	63	103	kitchen	sun_aunzlwrbjumxhwdj.tif	1104509.647186	1104509.905765	1104510.645871	6.922930e-01	93	37	1104511.480370	1
122	6	64	91	kitchen	sun_ahljzhgcdpomplvg.tif	1104512.258096	1104512.516683	1104513.256808	7.006339e-01	81	none	NaN	NaN
122	6	65	62	kitchen	labelme_kxvouciolcpqplr.tif	1104514.026516	1104514.285106	1104515.025159	7.423383e-01	52	39	1104516.416334	1
122	6	66	106	kitchen	sun_awcpdzzznmweyyhv.tif	1104517.187984	1104517.446569	1104518.186696	6.672704e-01	96	none	NaN	NaN
122	6	67	68	kitchen	sun_aaxxjlsuzvqlgylf.tif	1104518.956402	1104519.214988	1104519.955186	7.506792e-01	58	none	NaN	NaN
122	6	68	65	kitchen	sun_aamedkxepzlwuxes.tif	1104520.724815	1104520.983408	1104521.723558	7.339974e-01	55	none	NaN	NaN
122	6	69	96	kitchen	sun_ajcbwwvdlsvjyzje.tif	1104522.493238	1104522.751822	1104523.491915	7.006339e-01	86	none	NaN	NaN
122	6	70	110	kitchen	sun_azmutvzbxypaceni.tif	1104524.261657	1104524.520241	1104525.260367	8.424289e-01	100	none	NaN	NaN
122	6	71	77	kitchen	sun_acxkpeoqbwcxfvip.tif	1104526.030072	1104526.288663	1104527.028809	8.507698e-01	67	39	1104527.712291	1
122	6	72	86	kitchen	sun_aggjlwcdjsjcaemh.tif	1104528.482504	1104528.741090	1104529.481251	7.923836e-01	76	none	NaN	NaN
122	6	73	64	kitchen	sun_aadbddgrdsjugojn.tif	1104530.250923	1104530.509510	1104531.249559	6.756113e-01	54	none	NaN	NaN
122	6	74	76	kitchen	sun_acwjdupvyjsugpay.tif	1104532.019337	1104532.277925	1104533.018070	8.174062e-01	66	none	NaN	NaN
122	6	75	104	kitchen	sun_auticobqsbwgoppi.tif	1104533.787757	1104534.046345	1104534.786426	8.507698e-01	94	none	NaN	NaN
122	6	76	95	kitchen	sun_aixorpehvfykdynp.tif	1104535.556174	1104535.814764	1104536.554884	7.506792e-01	85	none	NaN	NaN
122	6	77	109	kitchen	sun_aypmqwcualkenuoe.tif	1104537.324593	1104537.583181	1104538.323266	8.340880e-01	99	none	NaN	NaN
122	6	78	108	kitchen	sun_aymvwlarqodbwuoc.tif	1104539.093009	1104539.351603	1104540.091719	6.756113e-01	98	37	1104540.832427	1
122	6	79	100	kitchen	sun_amjjdeyrggfqgmom.tif	1104541.603830	1104541.862420	1104542.602434	7.590201e-01	90	none	NaN	NaN
122	6	80	99	kitchen	sun_akcjzhbbjlbogpdi.tif	1104543.363904	1104543.622498	1104544.362581	6.589295e-01	89	none	NaN	NaN
122	6	81	70	kitchen	sun_abdxkyyxwfskuaqb.tif	1104545.132323	1104545.390915	1104546.131132	7.173157e-01	60	none	NaN	NaN
122	6	82	75	kitchen	sun_acgtpgfybqjmzeyw.tif	1104546.900742	1104547.159331	1104547.899518	6.672704e-01	65	37	1104548.704271	1
122	6	83	90	kitchen	sun_ahdycvpopffkzzsu.tif	1104549.478298	1104549.736890	1104550.476954	6.756113e-01	80	none	NaN	NaN
122	6	84	97	kitchen	sun_ajkqhtgcbgpcwrwn.tif	1104551.246714	1104551.505300	1104552.245516	6.839522e-01	87	none	NaN	NaN
122	6	85	88	kitchen	sun_agubuxuukhzyzpdp.tif	1104553.015135	1104553.273728	1104554.013794	6.505886e-01	78	none	NaN	NaN
122	6	86	80	kitchen	sun_aegoxogugdkwpmpj.tif	1104554.783549	1104555.042139	1104555.782350	8.090654e-01	70	none	NaN	NaN
122	6	87	82	kitchen	sun_aenotlpyftoioydp.tif	1104556.551968	1104556.810562	1104557.550672	7.256566e-01	72	none	NaN	NaN
122	6	88	102	kitchen	sun_auaiucuqpdausiva.tif	1104558.320387	1104558.578975	1104559.319084	7.923836e-01	92	39	1104559.967985	1
122	6	89	66	kitchen	sun_aapllqyqlykszopd.tif	1104560.739453	1104560.998043	1104561.738079	7.840427e-01	56	none	NaN	NaN
122	6	90	78	kitchen	sun_adgqasybjyktddhj.tif	1104562.499530	1104562.758115	1104563.498295	8.090654e-01	68	none	NaN	NaN
122	6	91	61	kitchen	labelme_brsyyvweiuaazfr.tif	1104564.267946	1104564.526539	1104565.266623	8.174062e-01	51	none	NaN	NaN
122	6	92	79	kitchen	sun_admlmbcdswaszruo.tif	1104566.036363	1104566.294953	1104567.035156	8.424289e-01	69	37	1104567.776330	1
122	6	93	73	kitchen	sun_abrcnpqqhmjwekyf.tif	1104568.547185	1104568.805770	1104569.545958	7.673610e-01	63	none	NaN	NaN
122	6	94	69	kitchen	sun_abdenxonkemggwsq.tif	1104570.315602	1104570.574190	1104571.314414	6.756113e-01	59	none	NaN	NaN
122	6	95	98	kitchen	sun_akchetnepxlcxhsu.tif	1104572.084020	1104572.342608	1104573.082770	7.757018e-01	88	none	NaN	NaN
122	6	96	107	kitchen	sun_axyyrmzcupyhlivc.tif	1104573.852440	1104574.111033	1104574.851240	7.840427e-01	97	none	NaN	NaN
122	6	97	71	kitchen	sun_abftihopvusyfakt.tif	1104575.620857	1104575.879449	1104576.619758	7.506792e-01	61	none	NaN	NaN
122	6	98	85	kitchen	sun_afuyedyxivkhecmu.tif	1104577.389278	1104577.647866	1104578.387997	7.339974e-01	75	none	NaN	NaN
122	6	99	93	kitchen	sun_ahspylgoovwmwvgk.tif	1104579.149350	1104579.407946	1104580.148102	7.423383e-01	83	none	NaN	NaN
122	6	100	72	kitchen	sun_abpwyqmlzafvklqo.tif	1104580.917770	1104581.176366	1104581.916465	7.423383e-01	62	none	NaN	NaN
122	7	1	30	bathroom	sun_ajlawzvmubibwbpy.tif	1104672.608587	1104672.867180	1104673.557192	6.672704e-01	20	37	1104674.360362	1
122	7	2	24	bathroom	sun_agrwbmhcpmfuwmsg.tif	1104675.136091	1104675.394680	1104676.084782	7.423383e-01	14	none	NaN	NaN
122	7	3	18	bathroom	sun_acgyywnybuveqsro.tif	1104676.854464	1104677.113051	1104677.803025	7.673610e-01	8	none	NaN	NaN
122	7	4	11	bathroom	labelme_sfxiulhjbhlyiyt.tif	1104678.564492	1104678.823082	1104679.513153	7.506792e-01	1	none	NaN	NaN
122	7	5	36	bathroom	sun_ambriybtogmepttm.tif	1104680.282858	1104680.541449	1104681.231532	7.840427e-01	26	none	NaN	NaN
122	7	6	59	bathroom	sun_axyrejkiiaqiurjk.tif	1104682.001224	1104682.259816	1104682.949927	8.007245e-01	49	39	1104683.816250	1
122	7	7	41	bathroom	sun_aoybiabnpadelefl.tif	1104684.587123	1104684.845713	1104685.535872	7.006339e-01	31	none	NaN	NaN
122	7	8	27	bathroom	sun_ahcvzmoyaycdoftf.tif	1104686.305490	1104686.564079	1104687.254144	7.339974e-01	17	none	NaN	NaN
122	7	9	33	bathroom	sun_aljolscmmzydegqp.tif	1104688.023854	1104688.282452	1104688.972610	7.423383e-01	23	none	NaN	NaN
122	7	10	19	bathroom	sun_aclfzgynxzxlbepz.tif	1104689.742228	1104690.000821	1104690.690828	6.756113e-01	9	none	NaN	NaN
122	7	11	50	bathroom	sun_aspsyogrekjtfozg.tif	1104691.460598	1104691.719184	1104692.409228	7.506792e-01	40	none	NaN	NaN
122	7	12	25	bathroom	sun_agyqfjcfkdcydepw.tif	1104693.178965	1104693.437557	1104694.127726	6.505886e-01	15	37	1104694.872001	1
122	7	13	48	bathroom	sun_aqrpegblszgcoujh.tif	1104695.648078	1104695.906667	1104696.596722	8.007245e-01	38	none	NaN	NaN
122	7	14	52	bathroom	sun_aunuadmjocsddsrl.tif	1104697.366447	1104697.625034	1104698.315075	8.340880e-01	42	none	NaN	NaN
122	7	15	45	bathroom	sun_apkxzenqapsujocq.tif	1104699.084819	1104699.343406	1104700.033451	7.923836e-01	35	none	NaN	NaN
122	7	16	54	bathroom	sun_auzqhkafidnkrwmo.tif	1104700.794845	1104701.053429	1104701.743582	6.839522e-01	44	none	NaN	NaN
122	7	17	43	bathroom	sun_apjevzvycyhuqghb.tif	1104702.513210	1104702.771799	1104703.461881	6.922930e-01	33	37	1104704.095999	1
122	7	18	23	bathroom	sun_aghyqhbptboemmoq.tif	1104704.873882	1104705.132474	1104705.822631	7.590201e-01	13	none	NaN	NaN
122	7	19	57	bathroom	sun_axldvoqbuvuggfmq.tif	1104706.592251	1104706.850842	1104707.540990	7.506792e-01	47	none	NaN	NaN
122	7	20	13	bathroom	sun_aavhrsfjbserjtht.tif	1104708.310622	1104708.569210	1104709.259268	8.174062e-01	3	none	NaN	NaN
122	7	21	28	bathroom	sun_ahijqszoswveeyji.tif	1104710.028985	1104710.287582	1104710.977570	7.339974e-01	18	39	1104711.632300	1
122	7	22	51	bathroom	sun_atstyziqcmkahyxk.tif	1104712.406345	1104712.664928	1104713.355117	7.256566e-01	41	none	NaN	NaN
122	7	23	55	bathroom	sun_avhrdrntsqrjzccq.tif	1104714.124712	1104714.383300	1104715.073394	7.089748e-01	45	none	NaN	NaN
122	7	24	40	bathroom	sun_aofnryafpsjimzsb.tif	1104715.843085	1104716.101672	1104716.791834	6.922930e-01	30	none	NaN	NaN
122	7	25	44	bathroom	sun_apkruvsevgegsdwp.tif	1104717.561445	1104717.820040	1104718.510205	8.090654e-01	34	none	NaN	NaN
122	7	26	42	bathroom	sun_apeeialkgkuxddgh.tif	1104719.279822	1104719.538405	1104720.228406	8.174062e-01	32	none	NaN	NaN
122	7	27	20	bathroom	sun_afcoljnjfoxjtgja.tif	1104720.989845	1104721.248436	1104721.938618	7.173157e-01	10	none	NaN	NaN
122	7	28	17	bathroom	sun_acegryoqftbzowsg.tif	1104722.708213	1104722.966803	1104723.656833	8.257471e-01	7	none	NaN	NaN
122	7	29	37	bathroom	sun_amzlamotzwfkwjco.tif	1104724.418243	1104724.676829	1104725.366970	6.922930e-01	27	none	NaN	NaN
122	7	30	16	bathroom	sun_acduarbnmmoglmiv.tif	1104726.128267	1104726.386861	1104727.076977	6.839522e-01	6	none	NaN	NaN
122	7	31	34	bathroom	sun_alkosphxlxwjwgjd.tif	1104727.846636	1104728.105228	1104728.795229	8.340880e-01	24	none	NaN	NaN
122	7	32	49	bathroom	sun_asfwthctfqerjvxr.tif	1104729.565006	1104729.823594	1104730.513712	7.673610e-01	39	none	NaN	NaN
122	7	33	31	bathroom	sun_akiytfaagpdsphgz.tif	1104731.283376	1104731.541966	1104732.231934	7.923836e-01	21	none	NaN	NaN
122	7	34	53	bathroom	sun_ausgutylgojavyoq.tif	1104733.001741	1104733.260277	1104733.950414	7.089748e-01	43	39	1104735.184364	1
122	7	35	39	bathroom	sun_anryaplzeujmzfkd.tif	1104735.954670	1104736.213261	1104736.903280	8.424289e-01	29	none	NaN	NaN
122	7	36	21	bathroom	sun_aggnnqpdorgxpvce.tif	1104737.673038	1104737.931627	1104738.621590	7.923836e-01	11	39	1104739.599997	1
122	7	37	56	bathroom	sun_awnqiikzaispgmwo.tif	1104740.375714	1104740.634303	1104741.324321	7.339974e-01	46	none	NaN	NaN
122	7	38	14	bathroom	sun_abapwbhyhkfixyex.tif	1104742.094082	1104742.352672	1104743.042739	8.174062e-01	4	none	NaN	NaN
122	7	39	60	bathroom	sun_azqyogdvyhahyram.tif	1104743.812452	1104744.071042	1104744.761111	7.590201e-01	50	none	NaN	NaN
122	7	40	38	bathroom	sun_anhioqovhscjqqwb.tif	1104745.530800	1104745.789411	1104746.479357	8.257471e-01	28	none	NaN	NaN
122	7	41	47	bathroom	sun_apynckhmoftszqoq.tif	1104747.240847	1104747.499438	1104748.189460	6.505886e-01	37	none	NaN	NaN
122	7	42	12	bathroom	sun_aapitsgbtktqubfy.tif	1104748.959216	1104749.217807	1104749.907952	8.007245e-01	2	none	NaN	NaN
122	7	43	22	bathroom	sun_agguqiubmwhqqunb.tif	1104750.677588	1104750.936173	1104751.626160	7.423383e-01	12	37	1104752.448239	1
122	7	44	46	bathroom	sun_apmqjbnwghzuhhzh.tif	1104753.221789	1104753.480361	1104754.170516	8.340880e-01	36	none	NaN	NaN
122	7	45	58	bathroom	sun_axxbkopsgyouuebh.tif	1104754.940143	1104755.198730	1104755.888777	8.257471e-01	48	none	NaN	NaN
122	7	46	35	bathroom	sun_alotolagknyrgtsk.tif	1104756.658513	1104756.917095	1104757.607155	8.424289e-01	25	none	NaN	NaN
122	7	47	26	bathroom	sun_ahaulkltgpkeeemi.tif	1104758.368539	1104758.627123	1104759.317208	8.090654e-01	16	none	NaN	NaN
122	7	48	29	bathroom	sun_ahqjwnzgolcaoidx.tif	1104760.086907	1104760.345493	1104761.035512	6.672704e-01	19	none	NaN	NaN
122	7	49	32	bathroom	sun_aleqenyvunhactkl.tif	1104761.805275	1104762.063867	1104762.754000	7.590201e-01	22	none	NaN	NaN
122	7	50	15	bathroom	sun_abjtwfukuwddzted.tif	1104763.523640	1104763.782229	1104764.472339	6.589295e-01	5	none	NaN	NaN
122	7	51	16	bathroom	sun_acduarbnmmoglmiv.tif	1104765.233672	1104765.492258	1104766.182435	7.173157e-01	6	none	NaN	NaN
122	7	52	53	bathroom	sun_ausgutylgojavyoq.tif	1104766.952038	1104767.210628	1104767.900808	8.340880e-01	43	none	NaN	NaN
122	7	53	23	bathroom	sun_aghyqhbptboemmoq.tif	1104768.670408	1104768.928996	1104769.618989	7.757018e-01	13	none	NaN	NaN
122	7	54	17	bathroom	sun_acegryoqftbzowsg.tif	1104770.388775	1104770.647369	1104771.337511	6.672704e-01	7	none	NaN	NaN
122	7	55	32	bathroom	sun_aleqenyvunhactkl.tif	1104772.107142	1104772.365735	1104773.055866	8.424289e-01	22	37	1104773.768329	1
122	7	56	37	bathroom	sun_amzlamotzwfkwjco.tif	1104774.542888	1104774.801481	1104775.491475	8.090654e-01	27	none	NaN	NaN
122	7	57	59	bathroom	sun_axyrejkiiaqiurjk.tif	1104776.252916	1104776.511505	1104777.201487	7.506792e-01	49	39	1104777.920259	1
122	7	58	41	bathroom	sun_aoybiabnpadelefl.tif	1104778.697004	1104778.955591	1104779.645676	7.006339e-01	31	none	NaN	NaN
122	7	59	26	bathroom	sun_ahaulkltgpkeeemi.tif	1104780.415373	1104780.673961	1104781.364114	8.090654e-01	16	none	NaN	NaN
122	7	60	55	bathroom	sun_avhrdrntsqrjzccq.tif	1104782.133746	1104782.392332	1104783.082521	6.756113e-01	45	none	NaN	NaN
122	7	61	40	bathroom	sun_aofnryafpsjimzsb.tif	1104783.852113	1104784.110701	1104784.800672	7.339974e-01	30	none	NaN	NaN
122	7	62	33	bathroom	sun_aljolscmmzydegqp.tif	1104785.562141	1104785.820728	1104786.510788	6.922930e-01	23	none	NaN	NaN
122	7	63	24	bathroom	sun_agrwbmhcpmfuwmsg.tif	1104787.280506	1104787.539095	1104788.229268	7.590201e-01	14	none	NaN	NaN
122	7	64	39	bathroom	sun_anryaplzeujmzfkd.tif	1104788.998877	1104789.257463	1104789.947631	8.507698e-01	29	none	NaN	NaN
122	7	65	38	bathroom	sun_anhioqovhscjqqwb.tif	1104790.717244	1104790.975825	1104791.665839	6.589295e-01	28	none	NaN	NaN
122	7	66	15	bathroom	sun_abjtwfukuwddzted.tif	1104792.435613	1104792.694201	1104793.384190	6.756113e-01	5	none	NaN	NaN
122	7	67	42	bathroom	sun_apeeialkgkuxddgh.tif	1104794.153980	1104794.412570	1104795.102573	7.840427e-01	32	none	NaN	NaN
122	7	68	11	bathroom	labelme_sfxiulhjbhlyiyt.tif	1104795.864012	1104796.122597	1104796.812637	8.507698e-01	1	none	NaN	NaN
122	7	69	12	bathroom	sun_aapitsgbtktqubfy.tif	1104797.582379	1104797.840968	1104798.531086	6.839522e-01	2	none	NaN	NaN
122	7	70	43	bathroom	sun_apjevzvycyhuqghb.tif	1104799.300748	1104799.559340	1104800.249336	7.256566e-01	33	none	NaN	NaN
122	7	71	47	bathroom	sun_apynckhmoftszqoq.tif	1104801.019117	1104801.277701	1104801.967819	8.007245e-01	37	37	1104802.728208	1
122	7	72	34	bathroom	sun_alkosphxlxwjwgjd.tif	1104803.504912	1104803.763501	1104804.453542	7.590201e-01	24	none	NaN	NaN
122	7	73	30	bathroom	sun_ajlawzvmubibwbpy.tif	1104805.223281	1104805.481871	1104806.171872	7.173157e-01	20	none	NaN	NaN
122	7	74	56	bathroom	sun_awnqiikzaispgmwo.tif	1104806.933308	1104807.191894	1104807.882029	6.589295e-01	46	none	NaN	NaN
122	7	75	36	bathroom	sun_ambriybtogmepttm.tif	1104808.651677	1104808.910268	1104809.600275	8.174062e-01	26	none	NaN	NaN
122	7	76	46	bathroom	sun_apmqjbnwghzuhhzh.tif	1104810.361703	1104810.620290	1104811.310425	6.672704e-01	36	none	NaN	NaN
122	7	77	14	bathroom	sun_abapwbhyhkfixyex.tif	1104812.080066	1104812.338655	1104813.028820	7.757018e-01	4	none	NaN	NaN
122	7	78	19	bathroom	sun_aclfzgynxzxlbepz.tif	1104813.798437	1104814.057025	1104814.747199	7.006339e-01	9	none	NaN	NaN
122	7	79	25	bathroom	sun_agyqfjcfkdcydepw.tif	1104815.516811	1104815.775398	1104816.465511	7.006339e-01	15	none	NaN	NaN
122	7	80	13	bathroom	sun_aavhrsfjbserjtht.tif	1104817.235175	1104817.493767	1104818.183815	7.256566e-01	3	none	NaN	NaN
122	7	81	60	bathroom	sun_azqyogdvyhahyram.tif	1104818.953546	1104819.212132	1104819.902112	7.423383e-01	50	none	NaN	NaN
122	7	82	50	bathroom	sun_aspsyogrekjtfozg.tif	1104820.671915	1104820.930505	1104821.620513	6.505886e-01	40	39	1104822.520128	1
122	7	83	22	bathroom	sun_agguqiubmwhqqunb.tif	1104823.291175	1104823.549763	1104824.239827	6.589295e-01	12	none	NaN	NaN
122	7	84	20	bathroom	sun_afcoljnjfoxjtgja.tif	1104825.009544	1104825.268132	1104825.958241	8.257471e-01	10	none	NaN	NaN
122	7	85	18	bathroom	sun_acgyywnybuveqsro.tif	1104826.727911	1104826.986502	1104827.676677	6.756113e-01	8	none	NaN	NaN
122	7	86	58	bathroom	sun_axxbkopsgyouuebh.tif	1104828.446281	1104828.704867	1104829.394925	7.757018e-01	48	none	NaN	NaN
122	7	87	35	bathroom	sun_alotolagknyrgtsk.tif	1104830.164648	1104830.423239	1104831.113281	7.256566e-01	25	none	NaN	NaN
122	7	88	44	bathroom	sun_apkruvsevgegsdwp.tif	1104831.883020	1104832.141607	1104832.831688	7.006339e-01	34	none	NaN	NaN
122	7	89	48	bathroom	sun_aqrpegblszgcoujh.tif	1104833.601322	1104833.859979	1104834.549880	7.840427e-01	38	none	NaN	NaN
122	7	90	45	bathroom	sun_apkxzenqapsujocq.tif	1104835.311412	1104835.570004	1104836.259989	7.840427e-01	35	none	NaN	NaN
122	7	91	57	bathroom	sun_axldvoqbuvuggfmq.tif	1104837.029783	1104837.288376	1104837.978348	7.089748e-01	47	39	1104838.872206	1
122	7	92	51	bathroom	sun_atstyziqcmkahyxk.tif	1104839.649046	1104839.907639	1104840.597654	7.173157e-01	41	none	NaN	NaN
122	7	93	31	bathroom	sun_akiytfaagpdsphgz.tif	1104841.367414	1104841.625997	1104842.316092	7.923836e-01	21	none	NaN	NaN
122	7	94	29	bathroom	sun_ahqjwnzgolcaoidx.tif	1104843.085783	1104843.344370	1104844.034433	8.257471e-01	19	none	NaN	NaN
122	7	95	54	bathroom	sun_auzqhkafidnkrwmo.tif	1104844.804151	1104845.062742	1104845.752770	8.424289e-01	44	37	1104846.688274	1
122	7	96	49	bathroom	sun_asfwthctfqerjvxr.tif	1104847.465121	1104847.723709	1104848.413805	7.757018e-01	39	none	NaN	NaN
122	7	97	52	bathroom	sun_aunuadmjocsddsrl.tif	1104849.175149	1104849.433737	1104850.123829	7.673610e-01	42	none	NaN	NaN
122	7	98	28	bathroom	sun_ahijqszoswveeyji.tif	1104850.893517	1104851.152107	1104851.842266	6.839522e-01	18	none	NaN	NaN
122	7	99	21	bathroom	sun_aggnnqpdorgxpvce.tif	1104852.611885	1104852.870474	1104853.560618	7.089748e-01	11	37	1104854.416279	1
122	7	100	27	bathroom	sun_ahcvzmoyaycdoftf.tif	1104855.189438	1104855.448023	1104856.138097	7.673610e-01	17	none	NaN	NaN
122	8	1	66	kitchen	sun_aapllqyqlykszopd.tif	1104915.682694	1104915.941271	1104916.631323	6.756113e-01	56	none	NaN	NaN
122	8	2	91	kitchen	sun_ahljzhgcdpomplvg.tif	1104917.401057	1104917.659646	1104918.349753	7.590201e-01	81	37	1104919.152336	1
122	8	3	104	kitchen	sun_auticobqsbwgoppi.tif	1104919.928563	1104920.187150	1104920.877194	8.507698e-01	94	none	NaN	NaN
122	8	4	109	kitchen	sun_aypmqwcualkenuoe.tif	1104921.646929	1104921.905517	1104922.595484	7.757018e-01	99	none	NaN	NaN
122	8	5	81	kitchen	sun_aehawpgmrlhlvcow.tif	1104923.356959	1104923.615549	1104924.305615	7.089748e-01	71	37	1104925.040292	1
122	8	6	101	kitchen	sun_aqeaevwwwjoqhzvl.tif	1104925.817731	1104926.076315	1104926.766348	7.256566e-01	91	none	NaN	NaN
122	8	7	85	kitchen	sun_afuyedyxivkhecmu.tif	1104927.536101	1104927.794688	1104928.484728	8.257471e-01	75	none	NaN	NaN
122	8	8	83	kitchen	sun_aeqdocilnnpuvuhx.tif	1104929.254464	1104929.513054	1104930.203157	7.006339e-01	73	none	NaN	NaN
122	8	9	80	kitchen	sun_aegoxogugdkwpmpj.tif	1104930.972837	1104931.231422	1104931.921540	8.090654e-01	70	none	NaN	NaN
122	8	10	86	kitchen	sun_aggjlwcdjsjcaemh.tif	1104932.691205	1104932.949793	1104933.639798	6.672704e-01	76	39	1104934.560301	1
122	8	11	65	kitchen	sun_aamedkxepzlwuxes.tif	1104935.335513	1104935.594083	1104936.284157	7.006339e-01	55	none	NaN	NaN
122	8	12	98	kitchen	sun_akchetnepxlcxhsu.tif	1104937.053856	1104937.312446	1104938.002563	7.006339e-01	88	none	NaN	NaN
122	8	13	77	kitchen	sun_acxkpeoqbwcxfvip.tif	1104938.772229	1104939.030814	1104939.720808	8.007245e-01	67	none	NaN	NaN
122	8	14	96	kitchen	sun_ajcbwwvdlsvjyzje.tif	1104940.482257	1104940.740843	1104941.430825	8.257471e-01	86	none	NaN	NaN
122	8	15	84	kitchen	sun_aexklacwqwezaorf.tif	1104942.192283	1104942.450873	1104943.141026	7.256566e-01	74	39	1104944.352380	1
122	8	16	79	kitchen	sun_admlmbcdswaszruo.tif	1104945.128524	1104945.387113	1104946.077215	7.506792e-01	69	none	NaN	NaN
122	8	17	89	kitchen	sun_agzzivivdpnawacl.tif	1104946.846896	1104947.105485	1104947.795600	8.424289e-01	79	37	1104948.520374	1
122	8	18	92	kitchen	sun_ahpczsiumwwocjkv.tif	1104949.290980	1104949.549569	1104950.239593	8.424289e-01	82	none	NaN	NaN
122	8	19	93	kitchen	sun_ahspylgoovwmwvgk.tif	1104951.009346	1104951.267939	1104951.958061	7.757018e-01	83	39	1104952.687978	1
122	8	20	87	kitchen	sun_agorklincwxrdtga.tif	1104953.461773	1104953.720365	1104954.410475	7.840427e-01	77	37	1104955.136198	1
122	8	21	68	kitchen	sun_aaxxjlsuzvqlgylf.tif	1104955.914205	1104956.172791	1104956.862861	6.839522e-01	58	none	NaN	NaN
122	8	22	76	kitchen	sun_acwjdupvyjsugpay.tif	1104957.632571	1104957.891166	1104958.581248	6.589295e-01	66	none	NaN	NaN
122	8	23	67	kitchen	sun_aarfiyshqohlwkmo.tif	1104959.350945	1104959.609536	1104960.299665	6.589295e-01	57	none	NaN	NaN
122	8	24	97	kitchen	sun_ajkqhtgcbgpcwrwn.tif	1104961.069313	1104961.327903	1104962.017873	7.506792e-01	87	none	NaN	NaN
122	8	25	110	kitchen	sun_azmutvzbxypaceni.tif	1104962.779339	1104963.037930	1104963.727978	7.173157e-01	100	none	NaN	NaN
122	8	26	105	kitchen	sun_avszsnwsbuqfgzbn.tif	1104964.497711	1104964.756295	1104965.446423	7.840427e-01	95	none	NaN	NaN
122	8	27	70	kitchen	sun_abdxkyyxwfskuaqb.tif	1104966.216074	1104966.474667	1104967.164774	8.507698e-01	60	none	NaN	NaN
122	8	28	69	kitchen	sun_abdenxonkemggwsq.tif	1104967.934449	1104968.193033	1104968.883210	7.506792e-01	59	none	NaN	NaN
122	8	29	64	kitchen	sun_aadbddgrdsjugojn.tif	1104969.652810	1104969.911401	1104970.601494	8.424289e-01	54	none	NaN	NaN
122	8	30	72	kitchen	sun_abpwyqmlzafvklqo.tif	1104971.371179	1104971.629771	1104972.319842	7.673610e-01	62	none	NaN	NaN
122	8	31	71	kitchen	sun_abftihopvusyfakt.tif	1104973.089546	1104973.348146	1104974.038157	7.590201e-01	61	none	NaN	NaN
122	8	32	108	kitchen	sun_aymvwlarqodbwuoc.tif	1104974.807917	1104975.066508	1104975.756610	8.340880e-01	98	none	NaN	NaN
122	8	33	102	kitchen	sun_auaiucuqpdausiva.tif	1104976.526291	1104976.784881	1104977.474868	7.339974e-01	92	none	NaN	NaN
122	8	34	75	kitchen	sun_acgtpgfybqjmzeyw.tif	1104978.236312	1104978.494907	1104979.185045	7.923836e-01	65	none	NaN	NaN
122	8	35	100	kitchen	sun_amjjdeyrggfqgmom.tif	1104979.954680	1104980.213274	1104980.903372	8.257471e-01	90	none	NaN	NaN
122	8	36	74	kitchen	sun_acfmftudsenhrfhy.tif	1104981.673054	1104981.931646	1104982.621728	7.673610e-01	64	none	NaN	NaN
122	8	37	73	kitchen	sun_abrcnpqqhmjwekyf.tif	1104983.391419	1104983.650008	1104984.340096	8.007245e-01	63	none	NaN	NaN
122	8	38	94	kitchen	sun_ahywdevtimnqcsln.tif	1104985.109789	1104985.368379	1104986.058397	8.174062e-01	84	none	NaN	NaN
122	8	39	106	kitchen	sun_awcpdzzznmweyyhv.tif	1104986.828158	1104987.086749	1104987.776747	6.922930e-01	96	none	NaN	NaN
122	8	40	103	kitchen	sun_aunzlwrbjumxhwdj.tif	1104988.546530	1104988.805117	1104989.495122	7.173157e-01	93	none	NaN	NaN
122	8	41	99	kitchen	sun_akcjzhbbjlbogpdi.tif	1104990.264895	1104990.523489	1104991.213573	7.423383e-01	89	none	NaN	NaN
122	8	42	63	kitchen	labelme_rykdqxenmhulbdn.tif	1104991.983264	1104992.241856	1104992.931837	8.257471e-01	53	none	NaN	NaN
122	8	43	61	kitchen	labelme_brsyyvweiuaazfr.tif	1104993.693296	1104993.951884	1104994.641894	7.506792e-01	51	none	NaN	NaN
122	8	44	88	kitchen	sun_agubuxuukhzyzpdp.tif	1104995.403320	1104995.661905	1104996.351995	7.590201e-01	78	none	NaN	NaN
122	8	45	95	kitchen	sun_aixorpehvfykdynp.tif	1104997.121685	1104997.380275	1104998.071018	7.089748e-01	85	none	NaN	NaN
122	8	46	62	kitchen	labelme_kxvouciolcpqplr.tif	1104998.840061	1104999.098649	1104999.788718	7.840427e-01	52	none	NaN	NaN
122	8	47	78	kitchen	sun_adgqasybjyktddhj.tif	1105000.558425	1105000.817021	1105001.506979	8.424289e-01	68	none	NaN	NaN
122	8	48	82	kitchen	sun_aenotlpyftoioydp.tif	1105002.268368	1105002.518577	1105003.217041	6.756113e-01	72	37	1105004.104295	1
122	8	49	90	kitchen	sun_ahdycvpopffkzzsu.tif	1105004.879384	1105005.137961	1105005.827940	7.423383e-01	80	none	NaN	NaN
122	8	50	107	kitchen	sun_axyyrmzcupyhlivc.tif	1105006.597737	1105006.856330	1105007.546304	6.839522e-01	97	none	NaN	NaN
122	8	51	109	kitchen	sun_aypmqwcualkenuoe.tif	1105008.307790	1105008.566360	1105009.256407	7.757018e-01	99	none	NaN	NaN
122	8	52	75	kitchen	sun_acgtpgfybqjmzeyw.tif	1105010.026135	1105010.284729	1105010.974876	7.173157e-01	65	none	NaN	NaN
122	8	53	76	kitchen	sun_acwjdupvyjsugpay.tif	1105011.744506	1105012.003096	1105012.693186	6.756113e-01	66	none	NaN	NaN
122	8	54	66	kitchen	sun_aapllqyqlykszopd.tif	1105013.462876	1105013.721467	1105014.411450	6.505886e-01	56	none	NaN	NaN
122	8	55	107	kitchen	sun_axyyrmzcupyhlivc.tif	1105015.172898	1105015.431489	1105016.121455	7.006339e-01	97	37	1105016.848270	1
122	8	56	64	kitchen	sun_aadbddgrdsjugojn.tif	1105017.625331	1105017.883925	1105018.574108	8.257471e-01	54	37	1105019.480287	1
122	8	57	101	kitchen	sun_aqeaevwwwjoqhzvl.tif	1105020.252935	1105020.511524	1105021.201566	6.922930e-01	91	none	NaN	NaN
122	8	58	79	kitchen	sun_admlmbcdswaszruo.tif	1105021.971296	1105022.229889	1105022.919891	7.256566e-01	69	none	NaN	NaN
122	8	59	61	kitchen	labelme_brsyyvweiuaazfr.tif	1105023.689672	1105023.948258	1105024.638272	7.590201e-01	51	none	NaN	NaN
122	8	60	92	kitchen	sun_ahpczsiumwwocjkv.tif	1105025.408042	1105025.666629	1105026.356772	7.590201e-01	82	none	NaN	NaN
122	8	61	63	kitchen	labelme_rykdqxenmhulbdn.tif	1105027.126406	1105027.384994	1105028.075068	7.339974e-01	53	none	NaN	NaN
122	8	62	93	kitchen	sun_ahspylgoovwmwvgk.tif	1105028.844773	1105029.103364	1105029.793380	7.256566e-01	83	none	NaN	NaN
122	8	63	106	kitchen	sun_awcpdzzznmweyyhv.tif	1105030.563145	1105030.821736	1105031.511951	6.922930e-01	96	none	NaN	NaN
122	8	64	83	kitchen	sun_aeqdocilnnpuvuhx.tif	1105032.281513	1105032.540101	1105033.230241	6.839522e-01	73	none	NaN	NaN
122	8	65	70	kitchen	sun_abdxkyyxwfskuaqb.tif	1105033.999879	1105034.258472	1105034.948479	7.006339e-01	60	none	NaN	NaN
122	8	66	84	kitchen	sun_aexklacwqwezaorf.tif	1105035.718252	1105035.976838	1105036.666928	7.757018e-01	74	none	NaN	NaN
122	8	67	78	kitchen	sun_adgqasybjyktddhj.tif	1105037.436618	1105037.695207	1105038.385276	7.923836e-01	68	none	NaN	NaN
122	8	68	77	kitchen	sun_acxkpeoqbwcxfvip.tif	1105039.154987	1105039.413577	1105040.103679	7.840427e-01	67	none	NaN	NaN
122	8	69	74	kitchen	sun_acfmftudsenhrfhy.tif	1105040.873355	1105041.131943	1105041.822031	8.090654e-01	64	none	NaN	NaN
122	8	70	94	kitchen	sun_ahywdevtimnqcsln.tif	1105042.591727	1105042.850317	1105043.540282	7.089748e-01	84	39	1105044.312376	1
122	8	71	95	kitchen	sun_aixorpehvfykdynp.tif	1105045.085861	1105045.344450	1105046.034469	6.672704e-01	85	39	1105046.872043	1
122	8	72	73	kitchen	sun_abrcnpqqhmjwekyf.tif	1105047.646728	1105047.905323	1105048.595407	8.007245e-01	63	37	1105049.352278	1
122	8	73	88	kitchen	sun_agubuxuukhzyzpdp.tif	1105050.124187	1105050.382775	1105051.072830	8.174062e-01	78	none	NaN	NaN
122	8	74	98	kitchen	sun_akchetnepxlcxhsu.tif	1105051.842557	1105052.101141	1105052.791174	8.007245e-01	88	none	NaN	NaN
122	8	75	80	kitchen	sun_aegoxogugdkwpmpj.tif	1105053.560923	1105053.819512	1105054.509581	6.672704e-01	70	39	1105055.280369	1
122	8	76	65	kitchen	sun_aamedkxepzlwuxes.tif	1105056.055058	1105056.313649	1105057.003749	7.673610e-01	55	none	NaN	NaN
122	8	77	103	kitchen	sun_aunzlwrbjumxhwdj.tif	1105057.773426	1105058.032016	1105058.722091	7.423383e-01	93	none	NaN	NaN
122	8	78	86	kitchen	sun_aggjlwcdjsjcaemh.tif	1105059.491799	1105059.750390	1105060.440410	8.090654e-01	76	none	NaN	NaN
122	8	79	71	kitchen	sun_abftihopvusyfakt.tif	1105061.210165	1105061.468755	1105062.158912	7.423383e-01	61	none	NaN	NaN
122	8	80	81	kitchen	sun_aehawpgmrlhlvcow.tif	1105062.928533	1105063.187122	1105063.877193	8.340880e-01	71	none	NaN	NaN
122	8	81	96	kitchen	sun_ajcbwwvdlsvjyzje.tif	1105064.646903	1105064.905494	1105065.595583	6.589295e-01	86	none	NaN	NaN
122	8	82	102	kitchen	sun_auaiucuqpdausiva.tif	1105066.365272	1105066.623860	1105067.313828	6.922930e-01	92	none	NaN	NaN
122	8	83	62	kitchen	labelme_kxvouciolcpqplr.tif	1105068.083640	1105068.342230	1105069.032268	7.339974e-01	52	none	NaN	NaN
122	8	84	108	kitchen	sun_aymvwlarqodbwuoc.tif	1105069.802007	1105070.060600	1105070.750701	6.589295e-01	98	none	NaN	NaN
122	8	85	72	kitchen	sun_abpwyqmlzafvklqo.tif	1105071.520379	1105071.778964	1105072.468989	8.174062e-01	62	none	NaN	NaN
122	8	86	87	kitchen	sun_agorklincwxrdtga.tif	1105073.238746	1105073.497333	1105074.187366	7.339974e-01	77	none	NaN	NaN
122	8	87	90	kitchen	sun_ahdycvpopffkzzsu.tif	1105074.957116	1105075.215702	1105075.905886	7.923836e-01	80	none	NaN	NaN
122	8	88	82	kitchen	sun_aenotlpyftoioydp.tif	1105076.675484	1105076.934074	1105077.624229	6.839522e-01	72	none	NaN	NaN
122	8	89	100	kitchen	sun_amjjdeyrggfqgmom.tif	1105078.393853	1105078.652442	1105079.342617	7.173157e-01	90	39	1105080.096018	1
122	8	90	67	kitchen	sun_aarfiyshqohlwkmo.tif	1105080.871305	1105081.129892	1105081.819859	7.089748e-01	57	none	NaN	NaN
122	8	91	104	kitchen	sun_auticobqsbwgoppi.tif	1105082.581335	1105082.839923	1105083.529949	8.090654e-01	94	none	NaN	NaN
122	8	92	110	kitchen	sun_azmutvzbxypaceni.tif	1105084.299701	1105084.558289	1105085.248411	7.673610e-01	100	none	NaN	NaN
122	8	93	105	kitchen	sun_avszsnwsbuqfgzbn.tif	1105086.018070	1105086.276661	1105086.966799	8.174062e-01	95	none	NaN	NaN
122	8	94	97	kitchen	sun_ajkqhtgcbgpcwrwn.tif	1105087.736440	1105087.995030	1105088.685050	8.340880e-01	87	none	NaN	NaN
122	8	95	85	kitchen	sun_afuyedyxivkhecmu.tif	1105089.454801	1105089.713394	1105090.403477	8.340880e-01	75	none	NaN	NaN
122	8	96	89	kitchen	sun_agzzivivdpnawacl.tif	1105091.173180	1105091.431766	1105092.121838	7.923836e-01	79	none	NaN	NaN
122	8	97	91	kitchen	sun_ahljzhgcdpomplvg.tif	1105092.891558	1105093.150134	1105093.840157	6.672704e-01	81	none	NaN	NaN
122	8	98	99	kitchen	sun_akcjzhbbjlbogpdi.tif	1105094.609912	1105094.868502	1105095.558540	6.505886e-01	89	none	NaN	NaN
122	8	99	68	kitchen	sun_aaxxjlsuzvqlgylf.tif	1105096.328283	1105096.586875	1105097.277019	6.756113e-01	58	none	NaN	NaN
122	8	100	69	kitchen	sun_abdenxonkemggwsq.tif	1105098.046653	1105098.305240	1105098.995381	6.505886e-01	59	none	NaN	NaN
122	9	1	11	bathroom	labelme_sfxiulhjbhlyiyt.tif	1105164.479112	1105164.737704	1105165.386070	7.757018e-01	1	none	NaN	NaN
122	9	2	24	bathroom	sun_agrwbmhcpmfuwmsg.tif	1105166.155772	1105166.414363	1105167.062631	8.507698e-01	14	none	NaN	NaN
122	9	3	60	bathroom	sun_azqyogdvyhahyram.tif	1105167.824092	1105168.082683	1105168.731075	7.006339e-01	50	none	NaN	NaN
122	9	4	19	bathroom	sun_aclfzgynxzxlbepz.tif	1105169.500750	1105169.759337	1105170.407698	7.923836e-01	9	none	NaN	NaN
122	9	5	14	bathroom	sun_abapwbhyhkfixyex.tif	1105171.177413	1105171.435997	1105172.084446	8.174062e-01	4	none	NaN	NaN
122	9	6	15	bathroom	sun_abjtwfukuwddzted.tif	1105172.854077	1105173.112663	1105173.760931	6.922930e-01	5	39	1105174.936560	1
122	9	7	21	bathroom	sun_aggnnqpdorgxpvce.tif	1105175.706896	1105175.965486	1105176.613956	7.506792e-01	11	none	NaN	NaN
122	9	8	38	bathroom	sun_anhioqovhscjqqwb.tif	1105177.383557	1105177.642147	1105178.290454	6.505886e-01	28	none	NaN	NaN
122	9	9	44	bathroom	sun_apkruvsevgegsdwp.tif	1105179.060218	1105179.318803	1105179.967135	6.589295e-01	34	none	NaN	NaN
122	9	10	56	bathroom	sun_awnqiikzaispgmwo.tif	1105180.736881	1105180.995469	1105181.643818	6.589295e-01	46	none	NaN	NaN
122	9	11	16	bathroom	sun_acduarbnmmoglmiv.tif	1105182.413537	1105182.672131	1105183.320485	8.257471e-01	6	none	NaN	NaN
122	9	12	45	bathroom	sun_apkxzenqapsujocq.tif	1105184.090196	1105184.348788	1105184.997225	8.007245e-01	35	none	NaN	NaN
122	9	13	18	bathroom	sun_acgyywnybuveqsro.tif	1105185.766863	1105186.025449	1105186.673753	8.424289e-01	8	none	NaN	NaN
122	9	14	20	bathroom	sun_afcoljnjfoxjtgja.tif	1105187.443524	1105187.702106	1105188.350524	7.757018e-01	10	37	1105189.128555	1
122	9	15	49	bathroom	sun_asfwthctfqerjvxr.tif	1105189.904294	1105190.162879	1105190.811237	8.090654e-01	39	none	NaN	NaN
122	9	16	31	bathroom	sun_akiytfaagpdsphgz.tif	1105191.580952	1105191.839540	1105192.487989	7.590201e-01	21	none	NaN	NaN
122	9	17	17	bathroom	sun_acegryoqftbzowsg.tif	1105193.257614	1105193.516201	1105194.164567	7.423383e-01	7	none	NaN	NaN
122	9	18	54	bathroom	sun_auzqhkafidnkrwmo.tif	1105194.934269	1105195.192857	1105195.841256	8.507698e-01	44	none	NaN	NaN
122	9	19	50	bathroom	sun_aspsyogrekjtfozg.tif	1105196.610933	1105196.869523	1105197.517902	8.174062e-01	40	none	NaN	NaN
122	9	20	34	bathroom	sun_alkosphxlxwjwgjd.tif	1105198.287593	1105198.546178	1105199.194446	7.339974e-01	24	37	1105199.952039	1
122	9	21	53	bathroom	sun_ausgutylgojavyoq.tif	1105200.723346	1105200.981923	1105201.630239	6.839522e-01	43	none	NaN	NaN
122	9	22	13	bathroom	sun_aavhrsfjbserjtht.tif	1105202.391659	1105202.650247	1105203.298540	6.672704e-01	3	none	NaN	NaN
122	9	23	52	bathroom	sun_aunuadmjocsddsrl.tif	1105204.068320	1105204.326906	1105204.975315	6.505886e-01	42	none	NaN	NaN
122	9	24	12	bathroom	sun_aapitsgbtktqubfy.tif	1105205.744972	1105206.003565	1105206.651872	7.590201e-01	2	none	NaN	NaN
122	9	25	39	bathroom	sun_anryaplzeujmzfkd.tif	1105207.421639	1105207.680222	1105208.328542	7.339974e-01	29	none	NaN	NaN
122	9	26	29	bathroom	sun_ahqjwnzgolcaoidx.tif	1105209.098301	1105209.356890	1105210.005153	7.089748e-01	19	none	NaN	NaN
122	9	27	26	bathroom	sun_ahaulkltgpkeeemi.tif	1105210.766623	1105211.025210	1105211.673504	6.672704e-01	16	37	1105212.160323	1
122	9	28	51	bathroom	sun_atstyziqcmkahyxk.tif	1105212.935428	1105213.194019	1105213.842347	7.089748e-01	41	none	NaN	NaN
