subject	block	trial	texture	category	image	trialOnset	itiOnset	trialEnd	iti	EEGtrigger	responseKey	responseTime	accuracy
120	1	1	13	bathroom	sun_aavhrsfjbserjtht.tif	488983.015897	488983.274491	488984.014706	7.506988e-01	3	none	NaN	NaN
120	1	2	49	bathroom	sun_asfwthctfqerjvxr.tif	488984.784315	488985.042902	488985.783108	8.424509e-01	39	none	NaN	NaN
120	1	3	25	bathroom	sun_agyqfjcfkdcydepw.tif	488986.552736	488986.811323	488987.551539	6.589467e-01	15	39	488989.775379	1
120	1	4	38	bathroom	sun_anhioqovhscjqqwb.tif	488990.548357	488990.806950	488991.547162	7.840632e-01	28	none	NaN	NaN
120	1	5	37	bathroom	sun_amzlamotzwfkwjco.tif	488992.316776	488992.575366	488993.315468	7.173344e-01	27	none	NaN	NaN
120	1	6	16	bathroom	sun_acduarbnmmoglmiv.tif	488994.085194	488994.343785	488995.083947	6.923111e-01	6	none	NaN	NaN
120	1	7	41	bathroom	sun_aoybiabnpadelefl.tif	488995.853613	488996.112201	488996.852448	6.923111e-01	31	39	488997.831379	1
120	1	8	55	bathroom	sun_avhrdrntsqrjzccq.tif	488998.606343	488998.864927	488999.605044	6.923111e-01	45	none	NaN	NaN
120	1	9	60	bathroom	sun_azqyogdvyhahyram.tif	489000.374743	489000.633349	489001.373522	7.423577e-01	50	39	489002.191217	0
120	1	10	29	bathroom	sun_ahqjwnzgolcaoidx.tif	489002.968990	489003.227577	489003.967786	7.340166e-01	19	none	NaN	NaN
120	1	11	15	bathroom	sun_abjtwfukuwddzted.tif	489004.737412	489004.996008	489005.736225	8.341098e-01	5	37	489006.615363	1
120	1	12	39	bathroom	sun_anryaplzeujmzfkd.tif	489007.390036	489007.648626	489008.388806	6.756289e-01	29	none	NaN	NaN
120	1	13	17	bathroom	sun_acegryoqftbzowsg.tif	489009.158454	489009.417047	489010.157247	8.090865e-01	7	none	NaN	NaN
120	1	14	30	bathroom	sun_ajlawzvmubibwbpy.tif	489010.926876	489011.185463	489011.925667	8.174276e-01	20	none	NaN	NaN
120	1	15	23	bathroom	sun_aghyqhbptboemmoq.tif	489012.695293	489012.953880	489013.693964	7.840632e-01	13	none	NaN	NaN
120	1	16	53	bathroom	sun_ausgutylgojavyoq.tif	489014.463713	489014.722297	489015.462384	7.506988e-01	43	none	NaN	NaN
120	1	17	59	bathroom	sun_axyrejkiiaqiurjk.tif	489016.232134	489016.490719	489017.230928	7.423577e-01	49	none	NaN	NaN
120	1	18	58	bathroom	sun_axxbkopsgyouuebh.tif	489018.000545	489018.259138	489018.999338	7.340166e-01	48	none	NaN	NaN
120	1	19	14	bathroom	sun_abapwbhyhkfixyex.tif	489019.768968	489020.027558	489020.767704	7.089933e-01	4	none	NaN	NaN
120	1	20	33	bathroom	sun_aljolscmmzydegqp.tif	489021.537383	489021.795979	489022.536174	6.923111e-01	23	none	NaN	NaN
120	1	21	46	bathroom	sun_apmqjbnwghzuhhzh.tif	489023.305802	489023.564389	489024.304552	7.340166e-01	36	39	489025.175498	1
120	1	22	18	bathroom	sun_acgyywnybuveqsro.tif	489025.950087	489026.208682	489026.948763	6.756289e-01	8	none	NaN	NaN
120	1	23	19	bathroom	sun_aclfzgynxzxlbepz.tif	489027.718506	489027.977097	489028.717301	7.757221e-01	9	none	NaN	NaN
120	1	24	11	bathroom	labelme_sfxiulhjbhlyiyt.tif	489029.486925	489029.745517	489030.485742	6.672878e-01	1	39	489036.863452	1
120	1	25	27	bathroom	sun_ahcvzmoyaycdoftf.tif	489037.636662	489037.895247	489038.635415	8.257687e-01	17	none	NaN	NaN
120	1	26	21	bathroom	sun_aggnnqpdorgxpvce.tif	489039.405083	489039.663669	489040.403883	7.590399e-01	11	none	NaN	NaN
120	1	27	42	bathroom	sun_apeeialkgkuxddgh.tif	489041.173500	489041.432087	489042.172287	7.590399e-01	32	none	NaN	NaN
120	1	28	56	bathroom	sun_awnqiikzaispgmwo.tif	489042.941905	489043.200508	489043.940583	8.174276e-01	46	none	NaN	NaN
120	1	29	44	bathroom	sun_apkruvsevgegsdwp.tif	489044.710333	489044.968925	489045.708985	7.423577e-01	34	none	NaN	NaN
120	1	30	20	bathroom	sun_afcoljnjfoxjtgja.tif	489046.470412	489046.729001	489047.469035	7.173344e-01	10	none	NaN	NaN
120	1	31	28	bathroom	sun_ahijqszoswveeyji.tif	489048.238829	489048.497417	489049.237466	8.424509e-01	18	none	NaN	NaN
120	1	32	26	bathroom	sun_ahaulkltgpkeeemi.tif	489049.998906	489050.257497	489050.997544	7.673810e-01	16	none	NaN	NaN
120	1	33	22	bathroom	sun_agguqiubmwhqqunb.tif	489051.767322	489052.025912	489052.765950	6.923111e-01	12	none	NaN	NaN
120	1	34	47	bathroom	sun_apynckhmoftszqoq.tif	489053.535740	489053.794331	489054.534465	7.590399e-01	37	none	NaN	NaN
120	1	35	45	bathroom	sun_apkxzenqapsujocq.tif	489055.304164	489055.562750	489056.302937	8.174276e-01	35	none	NaN	NaN
120	1	36	34	bathroom	sun_alkosphxlxwjwgjd.tif	489057.072578	489057.331164	489058.071261	8.341098e-01	24	none	NaN	NaN
120	1	37	12	bathroom	sun_aapitsgbtktqubfy.tif	489058.840998	489059.099583	489059.839709	8.090865e-01	2	none	NaN	NaN
120	1	38	52	bathroom	sun_aunuadmjocsddsrl.tif	489060.609414	489060.868007	489061.608071	7.089933e-01	42	none	NaN	NaN
120	1	39	50	bathroom	sun_aspsyogrekjtfozg.tif	489062.377835	489062.636416	489063.376539	7.924043e-01	40	none	NaN	NaN
120	1	40	54	bathroom	sun_auzqhkafidnkrwmo.tif	489064.146250	489064.404839	489065.144908	6.506056e-01	44	none	NaN	NaN
120	1	41	31	bathroom	sun_akiytfaagpdsphgz.tif	489065.914672	489066.173260	489066.913454	6.589467e-01	21	39	489067.863468	1
120	1	42	48	bathroom	sun_aqrpegblszgcoujh.tif	489068.634033	489068.892616	489069.632769	8.090865e-01	38	none	NaN	NaN
120	1	43	35	bathroom	sun_alotolagknyrgtsk.tif	489070.402448	489070.661035	489071.401101	8.007454e-01	25	none	NaN	NaN
120	1	44	24	bathroom	sun_agrwbmhcpmfuwmsg.tif	489072.170865	489072.429454	489073.169684	7.256755e-01	14	none	NaN	NaN
120	1	45	40	bathroom	sun_aofnryafpsjimzsb.tif	489073.939284	489074.197870	489074.938005	7.840632e-01	30	none	NaN	NaN
120	1	46	36	bathroom	sun_ambriybtogmepttm.tif	489075.707698	489075.966292	489076.706531	7.757221e-01	26	none	NaN	NaN
120	1	47	57	bathroom	sun_axldvoqbuvuggfmq.tif	489077.476121	489077.734710	489078.474849	8.257687e-01	47	none	NaN	NaN
120	1	48	43	bathroom	sun_apjevzvycyhuqghb.tif	489079.244538	489079.503126	489080.243230	6.506056e-01	33	none	NaN	NaN
120	1	49	32	bathroom	sun_aleqenyvunhactkl.tif	489081.012956	489081.271547	489082.011586	7.006522e-01	22	none	NaN	NaN
120	1	50	51	bathroom	sun_atstyziqcmkahyxk.tif	489082.781373	489083.039961	489083.780091	8.007454e-01	41	none	NaN	NaN
120	1	51	59	bathroom	sun_axyrejkiiaqiurjk.tif	489084.549789	489084.808381	489085.548429	7.006522e-01	49	none	NaN	NaN
120	1	52	11	bathroom	labelme_sfxiulhjbhlyiyt.tif	489086.318207	489086.576797	489087.317007	7.340166e-01	1	none	NaN	NaN
120	1	53	25	bathroom	sun_agyqfjcfkdcydepw.tif	489088.086628	489088.345220	489089.085282	7.506988e-01	15	none	NaN	NaN
120	1	54	16	bathroom	sun_acduarbnmmoglmiv.tif	489089.855046	489090.113634	489090.853714	7.173344e-01	6	none	NaN	NaN
120	1	55	21	bathroom	sun_aggnnqpdorgxpvce.tif	489091.623463	489091.882056	489092.622173	7.590399e-01	11	none	NaN	NaN
120	1	56	51	bathroom	sun_atstyziqcmkahyxk.tif	489093.391877	489093.650472	489094.390695	7.924043e-01	41	none	NaN	NaN
120	1	57	32	bathroom	sun_aleqenyvunhactkl.tif	489095.160301	489095.418889	489096.159129	7.924043e-01	22	none	NaN	NaN
120	1	58	33	bathroom	sun_aljolscmmzydegqp.tif	489096.928717	489097.187306	489097.927539	7.673810e-01	23	none	NaN	NaN
120	1	59	18	bathroom	sun_acgyywnybuveqsro.tif	489098.697136	489098.955723	489099.695927	7.089933e-01	8	none	NaN	NaN
120	1	60	36	bathroom	sun_ambriybtogmepttm.tif	489100.465555	489100.724141	489101.464333	7.840632e-01	26	none	NaN	NaN
120	1	61	13	bathroom	sun_aavhrsfjbserjtht.tif	489102.233970	489102.492561	489103.232620	8.507920e-01	3	none	NaN	NaN
120	1	62	56	bathroom	sun_awnqiikzaispgmwo.tif	489104.002388	489104.260983	489105.001161	7.757221e-01	46	39	489105.871498	1
120	1	63	14	bathroom	sun_abapwbhyhkfixyex.tif	489106.646676	489106.905269	489107.645313	6.589467e-01	4	none	NaN	NaN
120	1	64	45	bathroom	sun_apkxzenqapsujocq.tif	489108.415091	489108.673684	489109.413722	8.090865e-01	35	none	NaN	NaN
120	1	65	38	bathroom	sun_anhioqovhscjqqwb.tif	489110.183513	489110.442100	489111.182321	8.257687e-01	28	37	489114.455339	1
120	1	66	44	bathroom	sun_apkruvsevgegsdwp.tif	489115.230178	489115.488764	489116.228997	8.007454e-01	34	37	489117.023453	1
120	1	67	35	bathroom	sun_alotolagknyrgtsk.tif	489117.799388	489118.057978	489118.798100	6.672878e-01	25	none	NaN	NaN
120	1	68	55	bathroom	sun_avhrdrntsqrjzccq.tif	489119.559466	489119.818052	489120.558283	6.756289e-01	45	39	489121.271486	1
120	1	69	22	bathroom	sun_agguqiubmwhqqunb.tif	489122.045257	489122.303848	489123.044109	6.839700e-01	12	none	NaN	NaN
120	1	70	24	bathroom	sun_agrwbmhcpmfuwmsg.tif	489123.813675	489124.072267	489124.812329	7.423577e-01	14	none	NaN	NaN
120	1	71	47	bathroom	sun_apynckhmoftszqoq.tif	489125.582092	489125.840684	489126.580871	8.341098e-01	37	none	NaN	NaN
120	1	72	53	bathroom	sun_ausgutylgojavyoq.tif	489127.350514	489127.609104	489128.349296	7.590399e-01	43	none	NaN	NaN
120	1	73	15	bathroom	sun_abjtwfukuwddzted.tif	489129.118934	489129.377522	489130.117703	8.007454e-01	5	none	NaN	NaN
120	1	74	28	bathroom	sun_ahijqszoswveeyji.tif	489130.887349	489131.145938	489131.886003	7.256755e-01	18	none	NaN	NaN
120	1	75	26	bathroom	sun_ahaulkltgpkeeemi.tif	489132.655771	489132.914360	489133.654612	8.174276e-01	16	37	489134.759488	1
120	1	76	58	bathroom	sun_axxbkopsgyouuebh.tif	489135.533616	489135.792207	489136.532277	6.839700e-01	48	none	NaN	NaN
120	1	77	17	bathroom	sun_acegryoqftbzowsg.tif	489137.302037	489137.560621	489138.300725	6.839700e-01	7	37	489139.519153	1
120	1	78	54	bathroom	sun_auzqhkafidnkrwmo.tif	489140.296666	489140.555254	489141.295436	8.341098e-01	44	none	NaN	NaN
120	1	79	30	bathroom	sun_ajlawzvmubibwbpy.tif	489142.065085	489142.323678	489143.063919	7.173344e-01	20	none	NaN	NaN
120	1	80	19	bathroom	sun_aclfzgynxzxlbepz.tif	489143.833501	489144.092097	489144.832245	8.257687e-01	9	none	NaN	NaN
120	1	81	60	bathroom	sun_azqyogdvyhahyram.tif	489145.601924	489145.860512	489146.600613	7.256755e-01	50	none	NaN	NaN
120	1	82	50	bathroom	sun_aspsyogrekjtfozg.tif	489147.370337	489147.628930	489148.369108	7.757221e-01	40	none	NaN	NaN
120	1	83	42	bathroom	sun_apeeialkgkuxddgh.tif	489149.138756	489149.397347	489150.137528	7.006522e-01	32	none	NaN	NaN
120	1	84	49	bathroom	sun_asfwthctfqerjvxr.tif	489150.907176	489151.165766	489151.905848	7.673810e-01	39	none	NaN	NaN
120	1	85	27	bathroom	sun_ahcvzmoyaycdoftf.tif	489152.675594	489152.934184	489153.674420	7.006522e-01	17	none	NaN	NaN
120	1	86	12	bathroom	sun_aapitsgbtktqubfy.tif	489154.444012	489154.702604	489155.442823	7.256755e-01	2	none	NaN	NaN
120	1	87	23	bathroom	sun_aghyqhbptboemmoq.tif	489156.212429	489156.471019	489157.211139	6.506056e-01	13	39	489158.231426	1
120	1	88	20	bathroom	sun_afcoljnjfoxjtgja.tif	489159.006862	489159.265453	489160.005531	8.424509e-01	10	none	NaN	NaN
120	1	89	40	bathroom	sun_aofnryafpsjimzsb.tif	489160.775285	489161.033869	489161.774042	6.589467e-01	30	none	NaN	NaN
120	1	90	39	bathroom	sun_anryaplzeujmzfkd.tif	489162.543704	489162.802291	489163.542515	6.839700e-01	29	none	NaN	NaN
120	1	91	43	bathroom	sun_apjevzvycyhuqghb.tif	489164.312116	489164.570711	489165.310740	8.257687e-01	33	none	NaN	NaN
120	1	92	34	bathroom	sun_alkosphxlxwjwgjd.tif	489166.072197	489166.330783	489167.070925	6.672878e-01	24	none	NaN	NaN
120	1	93	41	bathroom	sun_aoybiabnpadelefl.tif	489167.840614	489168.099201	489168.839333	8.424509e-01	31	none	NaN	NaN
120	1	94	46	bathroom	sun_apmqjbnwghzuhhzh.tif	489169.609030	489169.867622	489170.607662	6.756289e-01	36	none	NaN	NaN
120	1	95	57	bathroom	sun_axldvoqbuvuggfmq.tif	489171.377453	489171.636038	489172.376249	8.507920e-01	47	none	NaN	NaN
120	1	96	31	bathroom	sun_akiytfaagpdsphgz.tif	489173.145867	489173.404452	489174.144579	7.506988e-01	21	37	489175.719469	1
120	1	97	37	bathroom	sun_amzlamotzwfkwjco.tif	489176.490845	489176.749436	489177.489612	7.089933e-01	27	none	NaN	NaN
120	1	98	29	bathroom	sun_ahqjwnzgolcaoidx.tif	489178.259263	489178.517853	489179.257936	7.673810e-01	19	none	NaN	NaN
120	1	99	52	bathroom	sun_aunuadmjocsddsrl.tif	489180.027684	489180.286269	489181.026341	7.924043e-01	42	none	NaN	NaN
120	1	100	48	bathroom	sun_aqrpegblszgcoujh.tif	489181.796102	489182.054692	489182.794746	6.672878e-01	38	none	NaN	NaN
120	2	1	62	kitchen	labelme_kxvouciolcpqplr.tif	489191.764305	489192.022894	489192.712911	8.257687e-01	52	none	NaN	NaN
120	2	2	82	kitchen	sun_aenotlpyftoioydp.tif	489193.482672	489193.741263	489194.431279	7.006522e-01	72	none	NaN	NaN
120	2	3	80	kitchen	sun_aegoxogugdkwpmpj.tif	489195.201044	489195.459633	489196.149675	8.257687e-01	70	none	NaN	NaN
120	2	4	84	kitchen	sun_aexklacwqwezaorf.tif	489196.919417	489197.177998	489197.867989	7.506988e-01	74	none	NaN	NaN
120	2	5	88	kitchen	sun_agubuxuukhzyzpdp.tif	489198.637777	489198.896370	489199.586369	7.423577e-01	78	none	NaN	NaN
120	2	6	85	kitchen	sun_afuyedyxivkhecmu.tif	489200.356147	489200.614737	489201.304881	7.924043e-01	75	37	489202.191322	1
120	2	7	73	kitchen	sun_abrcnpqqhmjwekyf.tif	489202.967063	489203.225656	489203.915754	7.590399e-01	63	none	NaN	NaN
120	2	8	99	kitchen	sun_akcjzhbbjlbogpdi.tif	489204.685436	489204.944027	489205.634173	7.256755e-01	89	none	NaN	NaN
120	2	9	75	kitchen	sun_acgtpgfybqjmzeyw.tif	489206.403802	489206.662392	489207.352481	7.590399e-01	65	none	NaN	NaN
120	2	10	92	kitchen	sun_ahpczsiumwwocjkv.tif	489208.122169	489208.380764	489209.070908	7.590399e-01	82	none	NaN	NaN
120	2	11	67	kitchen	sun_aarfiyshqohlwkmo.tif	489209.840538	489210.099129	489210.789303	7.506988e-01	57	39	489212.047571	0
120	2	12	89	kitchen	sun_agzzivivdpnawacl.tif	489212.818487	489213.077078	489213.767167	7.089933e-01	79	none	NaN	NaN
120	2	13	87	kitchen	sun_agorklincwxrdtga.tif	489214.536859	489214.795447	489215.485633	8.341098e-01	77	none	NaN	NaN
120	2	14	70	kitchen	sun_abdxkyyxwfskuaqb.tif	489216.255224	489216.513814	489217.203814	7.006522e-01	60	none	NaN	NaN
120	2	15	69	kitchen	sun_abdenxonkemggwsq.tif	489217.973596	489218.232188	489218.922218	6.506056e-01	59	none	NaN	NaN
120	2	16	66	kitchen	sun_aapllqyqlykszopd.tif	489219.691964	489219.950554	489220.640720	7.340166e-01	56	39	489221.391481	1
120	2	17	104	kitchen	sun_auticobqsbwgoppi.tif	489222.169417	489222.428006	489223.117988	8.007454e-01	94	none	NaN	NaN
120	2	18	90	kitchen	sun_ahdycvpopffkzzsu.tif	489223.887782	489224.146377	489224.836354	6.839700e-01	80	none	NaN	NaN
120	2	19	96	kitchen	sun_ajcbwwvdlsvjyzje.tif	489225.606155	489225.864741	489226.554898	6.923111e-01	86	none	NaN	NaN
120	2	20	65	kitchen	sun_aamedkxepzlwuxes.tif	489227.324524	489227.583114	489228.273311	7.089933e-01	55	none	NaN	NaN
120	2	21	106	kitchen	sun_awcpdzzznmweyyhv.tif	489229.042891	489229.301482	489229.991499	7.673810e-01	96	none	NaN	NaN
120	2	22	83	kitchen	sun_aeqdocilnnpuvuhx.tif	489230.761258	489231.019851	489231.709992	8.424509e-01	73	none	NaN	NaN
120	2	23	64	kitchen	sun_aadbddgrdsjugojn.tif	489232.479623	489232.738218	489233.428381	7.840632e-01	54	none	NaN	NaN
120	2	24	61	kitchen	labelme_brsyyvweiuaazfr.tif	489234.198000	489234.456588	489235.146654	7.173344e-01	51	none	NaN	NaN
120	2	25	107	kitchen	sun_axyyrmzcupyhlivc.tif	489235.916361	489236.174952	489236.865053	7.340166e-01	97	none	NaN	NaN
120	2	26	91	kitchen	sun_ahljzhgcdpomplvg.tif	489237.634732	489237.893315	489238.583338	6.589467e-01	81	none	NaN	NaN
120	2	27	94	kitchen	sun_ahywdevtimnqcsln.tif	489239.353100	489239.611693	489240.301685	7.506988e-01	84	none	NaN	NaN
120	2	28	78	kitchen	sun_adgqasybjyktddhj.tif	489241.071472	489241.330059	489242.020206	7.256755e-01	68	none	NaN	NaN
120	2	29	102	kitchen	sun_auaiucuqpdausiva.tif	489242.789838	489243.048427	489243.738527	6.923111e-01	92	none	NaN	NaN
120	2	30	95	kitchen	sun_aixorpehvfykdynp.tif	489244.508204	489244.766800	489245.456879	6.672878e-01	85	none	NaN	NaN
120	2	31	81	kitchen	sun_aehawpgmrlhlvcow.tif	489246.226575	489246.485166	489247.175167	7.006522e-01	71	39	489248.023460	1
120	2	32	74	kitchen	sun_acfmftudsenhrfhy.tif	489248.795785	489249.054374	489249.744509	8.341098e-01	64	37	489250.575383	1
120	2	33	72	kitchen	sun_abpwyqmlzafvklqo.tif	489251.348311	489251.606900	489252.296931	7.089933e-01	62	none	NaN	NaN
120	2	34	109	kitchen	sun_aypmqwcualkenuoe.tif	489253.066680	489253.325274	489254.015416	7.173344e-01	99	37	489254.959341	1
120	2	35	63	kitchen	labelme_rykdqxenmhulbdn.tif	489255.735991	489255.994577	489256.684881	7.757221e-01	53	none	NaN	NaN
120	2	36	105	kitchen	sun_avszsnwsbuqfgzbn.tif	489257.454358	489257.712951	489258.402978	7.089933e-01	95	none	NaN	NaN
120	2	37	98	kitchen	sun_akchetnepxlcxhsu.tif	489259.172729	489259.431323	489260.121434	8.090865e-01	88	none	NaN	NaN
120	2	38	86	kitchen	sun_aggjlwcdjsjcaemh.tif	489260.882756	489261.141343	489261.831386	6.672878e-01	76	none	NaN	NaN
120	2	39	68	kitchen	sun_aaxxjlsuzvqlgylf.tif	489262.601127	489262.859713	489263.549836	7.590399e-01	58	none	NaN	NaN
120	2	40	71	kitchen	sun_abftihopvusyfakt.tif	489264.319496	489264.578080	489265.268238	8.424509e-01	61	none	NaN	NaN
120	2	41	93	kitchen	sun_ahspylgoovwmwvgk.tif	489266.037864	489266.296448	489266.986606	7.673810e-01	83	39	489267.975412	1
120	2	42	100	kitchen	sun_amjjdeyrggfqgmom.tif	489268.748874	489269.007470	489269.697582	8.174276e-01	90	none	NaN	NaN
120	2	43	108	kitchen	sun_aymvwlarqodbwuoc.tif	489270.467249	489270.725837	489271.415862	6.756289e-01	98	none	NaN	NaN
120	2	44	76	kitchen	sun_acwjdupvyjsugpay.tif	489272.185620	489272.444204	489273.134301	7.840632e-01	66	none	NaN	NaN
120	2	45	97	kitchen	sun_ajkqhtgcbgpcwrwn.tif	489273.903984	489274.162576	489274.852734	7.757221e-01	87	none	NaN	NaN
120	2	46	79	kitchen	sun_admlmbcdswaszruo.tif	489275.622354	489275.880940	489276.571030	8.257687e-01	69	none	NaN	NaN
120	2	47	77	kitchen	sun_acxkpeoqbwcxfvip.tif	489277.340720	489277.599311	489278.289483	7.924043e-01	67	none	NaN	NaN
120	2	48	103	kitchen	sun_aunzlwrbjumxhwdj.tif	489279.059092	489279.317684	489280.007822	7.840632e-01	93	none	NaN	NaN
120	2	49	110	kitchen	sun_azmutvzbxypaceni.tif	489280.777459	489281.036045	489281.726097	8.007454e-01	100	none	NaN	NaN
120	2	50	101	kitchen	sun_aqeaevwwwjoqhzvl.tif	489282.495826	489282.754417	489283.444520	7.173344e-01	91	none	NaN	NaN
120	2	51	88	kitchen	sun_agubuxuukhzyzpdp.tif	489284.214195	489284.472785	489285.162864	8.174276e-01	78	none	NaN	NaN
120	2	52	92	kitchen	sun_ahpczsiumwwocjkv.tif	489285.932568	489286.191155	489286.881288	6.923111e-01	82	39	489287.647268	1
120	2	53	66	kitchen	sun_aapllqyqlykszopd.tif	489288.418358	489288.676948	489289.367116	8.090865e-01	56	none	NaN	NaN
120	2	54	102	kitchen	sun_auaiucuqpdausiva.tif	489290.136730	489290.395316	489291.085509	7.924043e-01	92	37	489291.847442	1
120	2	55	78	kitchen	sun_adgqasybjyktddhj.tif	489292.622520	489292.881114	489293.571138	7.924043e-01	68	none	NaN	NaN
120	2	56	68	kitchen	sun_aaxxjlsuzvqlgylf.tif	489294.340893	489294.599479	489295.289514	6.756289e-01	58	none	NaN	NaN
120	2	57	62	kitchen	labelme_kxvouciolcpqplr.tif	489296.059260	489296.317843	489297.008029	6.589467e-01	52	none	NaN	NaN
120	2	58	100	kitchen	sun_amjjdeyrggfqgmom.tif	489297.777630	489298.036222	489298.726413	6.923111e-01	90	none	NaN	NaN
120	2	59	74	kitchen	sun_acfmftudsenhrfhy.tif	489299.495997	489299.754586	489300.444718	7.173344e-01	64	none	NaN	NaN
120	2	60	109	kitchen	sun_aypmqwcualkenuoe.tif	489301.214365	489301.472955	489302.163044	8.424509e-01	99	none	NaN	NaN
120	2	61	105	kitchen	sun_avszsnwsbuqfgzbn.tif	489302.932734	489303.191322	489303.881424	7.590399e-01	95	none	NaN	NaN
120	2	62	67	kitchen	sun_aarfiyshqohlwkmo.tif	489304.651101	489304.909690	489305.599718	6.839700e-01	57	none	NaN	NaN
120	2	63	83	kitchen	sun_aeqdocilnnpuvuhx.tif	489306.369472	489306.628062	489307.318153	6.672878e-01	73	none	NaN	NaN
120	2	64	90	kitchen	sun_ahdycvpopffkzzsu.tif	489308.087836	489308.346419	489309.036582	6.756289e-01	80	none	NaN	NaN
120	2	65	75	kitchen	sun_acgtpgfybqjmzeyw.tif	489309.806210	489310.064793	489310.754881	7.757221e-01	65	none	NaN	NaN
120	2	66	101	kitchen	sun_aqeaevwwwjoqhzvl.tif	489311.524578	489311.783165	489312.473296	7.757221e-01	91	none	NaN	NaN
120	2	67	82	kitchen	sun_aenotlpyftoioydp.tif	489313.242944	489313.501531	489314.191646	6.839700e-01	72	39	489315.095810	1
120	2	68	97	kitchen	sun_ajkqhtgcbgpcwrwn.tif	489315.870549	489316.129139	489316.819222	7.006522e-01	87	none	NaN	NaN
120	2	69	77	kitchen	sun_acxkpeoqbwcxfvip.tif	489317.580384	489317.830665	489318.529129	7.340166e-01	67	none	NaN	NaN
120	2	70	63	kitchen	labelme_rykdqxenmhulbdn.tif	489319.290377	489319.548994	489320.239038	7.423577e-01	53	none	NaN	NaN
120	2	71	87	kitchen	sun_agorklincwxrdtga.tif	489321.000624	489321.259210	489321.949371	8.341098e-01	77	none	NaN	NaN
120	2	72	84	kitchen	sun_aexklacwqwezaorf.tif	489322.718993	489322.977586	489323.667610	7.673810e-01	74	none	NaN	NaN
120	2	73	94	kitchen	sun_ahywdevtimnqcsln.tif	489324.437368	489324.695952	489325.386091	6.923111e-01	84	37	489326.623111	1
120	2	74	65	kitchen	sun_aamedkxepzlwuxes.tif	489327.398628	489327.657218	489328.347238	8.507920e-01	55	none	NaN	NaN
120	2	75	96	kitchen	sun_ajcbwwvdlsvjyzje.tif	489329.116999	489329.375586	489330.065714	7.506988e-01	86	39	489330.919412	1
120	2	76	106	kitchen	sun_awcpdzzznmweyyhv.tif	489331.694548	489331.953142	489332.643239	8.007454e-01	96	none	NaN	NaN
120	2	77	80	kitchen	sun_aegoxogugdkwpmpj.tif	489333.412920	489333.671508	489334.361644	8.257687e-01	70	37	489335.095388	1
120	2	78	95	kitchen	sun_aixorpehvfykdynp.tif	489335.873690	489336.132276	489336.822260	7.423577e-01	85	none	NaN	NaN
120	2	79	81	kitchen	sun_aehawpgmrlhlvcow.tif	489337.592056	489337.850644	489338.540661	8.174276e-01	71	none	NaN	NaN
120	2	80	76	kitchen	sun_acwjdupvyjsugpay.tif	489339.310439	489339.569015	489340.259098	6.589467e-01	66	39	489340.983434	1
120	2	81	61	kitchen	labelme_brsyyvweiuaazfr.tif	489341.754511	489342.013100	489342.703113	8.090865e-01	51	none	NaN	NaN
120	2	82	98	kitchen	sun_akchetnepxlcxhsu.tif	489343.472882	489343.731473	489344.421657	8.007454e-01	88	none	NaN	NaN
120	2	83	91	kitchen	sun_ahljzhgcdpomplvg.tif	489345.191246	489345.449839	489346.139970	6.506056e-01	81	none	NaN	NaN
120	2	84	72	kitchen	sun_abpwyqmlzafvklqo.tif	489346.909620	489347.168206	489347.858328	6.589467e-01	62	none	NaN	NaN
120	2	85	107	kitchen	sun_axyyrmzcupyhlivc.tif	489348.627986	489348.886578	489349.576635	7.423577e-01	97	39	489350.255260	1
120	2	86	104	kitchen	sun_auticobqsbwgoppi.tif	489351.030367	489351.288953	489351.978964	6.839700e-01	94	none	NaN	NaN
120	2	87	108	kitchen	sun_aymvwlarqodbwuoc.tif	489352.748732	489353.007322	489353.697414	7.256755e-01	98	none	NaN	NaN
120	2	88	93	kitchen	sun_ahspylgoovwmwvgk.tif	489354.467107	489354.725689	489355.415688	8.257687e-01	83	none	NaN	NaN
120	2	89	86	kitchen	sun_aggjlwcdjsjcaemh.tif	489356.185468	489356.444061	489357.134135	8.174276e-01	76	none	NaN	NaN
120	2	90	103	kitchen	sun_aunzlwrbjumxhwdj.tif	489357.903839	489358.162428	489358.852610	6.506056e-01	93	none	NaN	NaN
120	2	91	73	kitchen	sun_abrcnpqqhmjwekyf.tif	489359.622212	489359.880795	489360.570907	7.340166e-01	63	none	NaN	NaN
120	2	92	89	kitchen	sun_agzzivivdpnawacl.tif	489361.340576	489361.599167	489362.289344	7.673810e-01	79	none	NaN	NaN
120	2	93	71	kitchen	sun_abftihopvusyfakt.tif	489363.058946	489363.317534	489364.007663	6.756289e-01	61	none	NaN	NaN
120	2	94	85	kitchen	sun_afuyedyxivkhecmu.tif	489364.777313	489365.035902	489365.725942	8.507920e-01	75	none	NaN	NaN
120	2	95	64	kitchen	sun_aadbddgrdsjugojn.tif	489366.487336	489366.745929	489367.436041	6.672878e-01	54	none	NaN	NaN
120	2	96	110	kitchen	sun_azmutvzbxypaceni.tif	489368.205708	489368.464298	489369.154412	8.424509e-01	100	none	NaN	NaN
120	2	97	70	kitchen	sun_abdxkyyxwfskuaqb.tif	489369.924077	489370.182665	489370.872700	8.341098e-01	60	none	NaN	NaN
120	2	98	99	kitchen	sun_akcjzhbbjlbogpdi.tif	489371.642444	489371.901036	489372.591067	7.840632e-01	89	none	NaN	NaN
120	2	99	79	kitchen	sun_admlmbcdswaszruo.tif	489373.360814	489373.619400	489374.309596	8.090865e-01	69	none	NaN	NaN
120	2	100	69	kitchen	sun_abdenxonkemggwsq.tif	489375.079180	489375.337769	489376.027763	7.256755e-01	59	none	NaN	NaN
120	3	1	27	bathroom	sun_ahcvzmoyaycdoftf.tif	489382.227928	489382.486518	489383.301621	8.257687e-01	17	none	NaN	NaN
120	3	2	21	bathroom	sun_aggnnqpdorgxpvce.tif	489384.063084	489384.321671	489385.136872	6.923111e-01	11	39	489386.207375	1
120	3	3	19	bathroom	sun_aclfzgynxzxlbepz.tif	489386.982633	489387.241228	489388.056492	8.257687e-01	9	none	NaN	NaN
120	3	4	46	bathroom	sun_apmqjbnwghzuhhzh.tif	489388.826128	489389.084717	489389.899847	7.089933e-01	36	none	NaN	NaN
120	3	5	17	bathroom	sun_acegryoqftbzowsg.tif	489390.669623	489390.928209	489391.743456	8.424509e-01	7	none	NaN	NaN
120	3	6	34	bathroom	sun_alkosphxlxwjwgjd.tif	489392.513115	489392.771699	489393.586981	7.256755e-01	24	none	NaN	NaN
120	3	7	18	bathroom	sun_acgyywnybuveqsro.tif	489394.356605	489394.615196	489395.430380	7.089933e-01	8	none	NaN	NaN
120	3	8	38	bathroom	sun_anhioqovhscjqqwb.tif	489396.200098	489396.458687	489397.273999	6.756289e-01	28	none	NaN	NaN
120	3	9	50	bathroom	sun_aspsyogrekjtfozg.tif	489398.043525	489398.302179	489399.117322	8.424509e-01	40	none	NaN	NaN
120	3	10	29	bathroom	sun_ahqjwnzgolcaoidx.tif	489399.887080	489400.145671	489400.960926	7.089933e-01	19	37	489402.191352	1
120	3	11	53	bathroom	sun_ausgutylgojavyoq.tif	489402.965128	489403.223717	489404.038931	6.589467e-01	43	none	NaN	NaN
120	3	12	59	bathroom	sun_axyrejkiiaqiurjk.tif	489404.808625	489405.067210	489405.882485	7.840632e-01	49	none	NaN	NaN
120	3	13	24	bathroom	sun_agrwbmhcpmfuwmsg.tif	489406.652116	489406.910707	489407.725918	8.007454e-01	14	none	NaN	NaN
120	3	14	58	bathroom	sun_axxbkopsgyouuebh.tif	489408.495606	489408.754201	489409.569440	7.506988e-01	48	none	NaN	NaN
120	3	15	31	bathroom	sun_akiytfaagpdsphgz.tif	489410.339101	489410.597691	489411.413005	6.839700e-01	21	none	NaN	NaN
120	3	16	13	bathroom	sun_aavhrsfjbserjtht.tif	489412.182589	489412.441180	489413.256386	7.590399e-01	3	none	NaN	NaN
120	3	17	54	bathroom	sun_auzqhkafidnkrwmo.tif	489414.026082	489414.284677	489415.099877	8.341098e-01	44	37	489415.951402	1
120	3	18	37	bathroom	sun_amzlamotzwfkwjco.tif	489416.728761	489416.987338	489417.802591	7.340166e-01	27	none	NaN	NaN
120	3	19	49	bathroom	sun_asfwthctfqerjvxr.tif	489418.572250	489418.830841	489419.645957	7.173344e-01	39	none	NaN	NaN
120	3	20	45	bathroom	sun_apkxzenqapsujocq.tif	489420.407408	489420.665997	489421.481260	6.756289e-01	35	none	NaN	NaN
120	3	21	39	bathroom	sun_anryaplzeujmzfkd.tif	489422.250894	489422.509488	489423.324742	6.506056e-01	29	none	NaN	NaN
120	3	22	51	bathroom	sun_atstyziqcmkahyxk.tif	489424.094389	489424.352978	489425.168199	7.673810e-01	41	none	NaN	NaN
120	3	23	30	bathroom	sun_ajlawzvmubibwbpy.tif	489425.937881	489426.196474	489427.011765	6.923111e-01	20	none	NaN	NaN
120	3	24	33	bathroom	sun_aljolscmmzydegqp.tif	489427.781373	489428.039966	489428.855264	7.840632e-01	23	none	NaN	NaN
120	3	25	20	bathroom	sun_afcoljnjfoxjtgja.tif	489429.624864	489429.883457	489430.698659	6.756289e-01	10	none	NaN	NaN
120	3	26	60	bathroom	sun_azqyogdvyhahyram.tif	489431.468358	489431.726943	489432.542243	8.090865e-01	50	none	NaN	NaN
120	3	27	22	bathroom	sun_agguqiubmwhqqunb.tif	489433.311853	489433.570442	489434.385732	7.673810e-01	12	39	489435.575259	1
120	3	28	55	bathroom	sun_avhrdrntsqrjzccq.tif	489436.348194	489436.598440	489437.421965	7.173344e-01	45	none	NaN	NaN
120	3	29	52	bathroom	sun_aunuadmjocsddsrl.tif	489438.183121	489438.433477	489439.256971	7.006522e-01	42	none	NaN	NaN
120	3	30	14	bathroom	sun_abapwbhyhkfixyex.tif	489440.018421	489440.268602	489441.092110	7.924043e-01	4	none	NaN	NaN
120	3	31	35	bathroom	sun_alotolagknyrgtsk.tif	489441.853640	489442.112235	489442.927556	7.757221e-01	25	39	489443.791086	1
120	3	32	11	bathroom	labelme_sfxiulhjbhlyiyt.tif	489444.564661	489444.823249	489445.638441	7.340166e-01	1	none	NaN	NaN
120	3	33	48	bathroom	sun_aqrpegblszgcoujh.tif	489446.408152	489446.666742	489447.481964	8.257687e-01	38	none	NaN	NaN
120	3	34	28	bathroom	sun_ahijqszoswveeyji.tif	489448.251645	489448.510233	489449.325398	7.506988e-01	18	39	489450.215311	1
120	3	35	57	bathroom	sun_axldvoqbuvuggfmq.tif	489450.987688	489451.246277	489452.061465	7.924043e-01	47	none	NaN	NaN
120	3	36	26	bathroom	sun_ahaulkltgpkeeemi.tif	489452.831177	489453.089769	489453.904965	7.256755e-01	16	none	NaN	NaN
120	3	37	23	bathroom	sun_aghyqhbptboemmoq.tif	489454.674674	489454.933260	489455.748416	8.174276e-01	13	none	NaN	NaN
120	3	38	47	bathroom	sun_apynckhmoftszqoq.tif	489456.518166	489456.776759	489457.591867	7.423577e-01	37	none	NaN	NaN
120	3	39	42	bathroom	sun_apeeialkgkuxddgh.tif	489458.361657	489458.620248	489459.435463	7.673810e-01	32	39	489461.095312	1
120	3	40	25	bathroom	sun_agyqfjcfkdcydepw.tif	489461.873488	489462.132062	489462.947215	6.839700e-01	15	none	NaN	NaN
120	3	41	32	bathroom	sun_aleqenyvunhactkl.tif	489463.716961	489463.975551	489464.790779	7.506988e-01	22	39	489465.527270	1
120	3	42	12	bathroom	sun_aapitsgbtktqubfy.tif	489466.302853	489466.561444	489467.376591	8.007454e-01	2	none	NaN	NaN
120	3	43	36	bathroom	sun_ambriybtogmepttm.tif	489468.146350	489468.404938	489469.220155	7.006522e-01	26	none	NaN	NaN
120	3	44	44	bathroom	sun_apkruvsevgegsdwp.tif	489469.989842	489470.248430	489471.063684	8.507920e-01	34	none	NaN	NaN
120	3	45	56	bathroom	sun_awnqiikzaispgmwo.tif	489471.833332	489472.091924	489472.907110	6.756289e-01	46	none	NaN	NaN
120	3	46	15	bathroom	sun_abjtwfukuwddzted.tif	489473.676827	489473.935413	489474.750732	8.424509e-01	5	none	NaN	NaN
120	3	47	16	bathroom	sun_acduarbnmmoglmiv.tif	489475.520315	489475.778912	489476.594036	6.923111e-01	6	none	NaN	NaN
120	3	48	43	bathroom	sun_apjevzvycyhuqghb.tif	489477.363808	489477.622397	489478.437648	7.757221e-01	33	none	NaN	NaN
120	3	49	40	bathroom	sun_aofnryafpsjimzsb.tif	489479.207298	489479.465890	489480.281125	6.672878e-01	30	none	NaN	NaN
120	3	50	41	bathroom	sun_aoybiabnpadelefl.tif	489481.050792	489481.309386	489482.124638	6.672878e-01	31	none	NaN	NaN
120	3	51	27	bathroom	sun_ahcvzmoyaycdoftf.tif	489482.894284	489483.152876	489483.968118	8.341098e-01	17	37	489484.895206	1
120	3	52	36	bathroom	sun_ambriybtogmepttm.tif	489485.672037	489485.930626	489486.745791	8.341098e-01	26	none	NaN	NaN
120	3	53	37	bathroom	sun_amzlamotzwfkwjco.tif	489487.507187	489487.765778	489488.581061	8.090865e-01	27	none	NaN	NaN
120	3	54	14	bathroom	sun_abapwbhyhkfixyex.tif	489489.350680	489489.609267	489490.424395	8.007454e-01	4	none	NaN	NaN
120	3	55	40	bathroom	sun_aofnryafpsjimzsb.tif	489491.194176	489491.452763	489492.268050	7.173344e-01	30	none	NaN	NaN
120	3	56	41	bathroom	sun_aoybiabnpadelefl.tif	489493.037666	489493.296251	489494.111372	6.589467e-01	31	none	NaN	NaN
120	3	57	39	bathroom	sun_anryaplzeujmzfkd.tif	489494.881159	489495.139746	489495.955041	6.839700e-01	29	none	NaN	NaN
120	3	58	43	bathroom	sun_apjevzvycyhuqghb.tif	489496.724652	489496.983238	489497.798352	6.923111e-01	33	none	NaN	NaN
120	3	59	60	bathroom	sun_azqyogdvyhahyram.tif	489498.559800	489498.818389	489499.633624	7.006522e-01	50	39	489500.623207	1
120	3	60	38	bathroom	sun_anhioqovhscjqqwb.tif	489501.395945	489501.654532	489502.469659	7.256755e-01	28	none	NaN	NaN
120	3	61	12	bathroom	sun_aapitsgbtktqubfy.tif	489503.239434	489503.498024	489504.313137	7.423577e-01	2	none	NaN	NaN
120	3	62	11	bathroom	labelme_sfxiulhjbhlyiyt.tif	489505.082929	489505.341518	489506.156705	7.757221e-01	1	none	NaN	NaN
120	3	63	30	bathroom	sun_ajlawzvmubibwbpy.tif	489506.926419	489507.185005	489508.000310	8.174276e-01	20	none	NaN	NaN
120	3	64	28	bathroom	sun_ahijqszoswveeyji.tif	489508.769912	489509.028506	489509.843813	6.506056e-01	18	none	NaN	NaN
120	3	65	48	bathroom	sun_aqrpegblszgcoujh.tif	489510.613406	489510.871999	489511.687213	7.506988e-01	38	none	NaN	NaN
120	3	66	25	bathroom	sun_agyqfjcfkdcydepw.tif	489512.456896	489512.715485	489513.530727	7.423577e-01	15	none	NaN	NaN
120	3	67	23	bathroom	sun_aghyqhbptboemmoq.tif	489514.300390	489514.558980	489515.374300	6.923111e-01	13	none	NaN	NaN
120	3	68	16	bathroom	sun_acduarbnmmoglmiv.tif	489516.143880	489516.402469	489517.217614	7.340166e-01	6	none	NaN	NaN
120	3	69	58	bathroom	sun_axxbkopsgyouuebh.tif	489517.987377	489518.245960	489519.061156	8.257687e-01	48	none	NaN	NaN
120	3	70	21	bathroom	sun_aggnnqpdorgxpvce.tif	489519.830868	489520.089458	489520.904620	8.174276e-01	11	none	NaN	NaN
120	3	71	26	bathroom	sun_ahaulkltgpkeeemi.tif	489521.674360	489521.932950	489522.748139	8.090865e-01	16	none	NaN	NaN
120	3	72	34	bathroom	sun_alkosphxlxwjwgjd.tif	489523.517864	489523.776436	489524.591710	6.506056e-01	24	none	NaN	NaN
120	3	73	52	bathroom	sun_aunuadmjocsddsrl.tif	489525.361342	489525.619933	489526.435153	6.672878e-01	42	none	NaN	NaN
120	3	74	15	bathroom	sun_abjtwfukuwddzted.tif	489527.204836	489527.463422	489528.278744	7.590399e-01	5	none	NaN	NaN
120	3	75	13	bathroom	sun_aavhrsfjbserjtht.tif	489529.048326	489529.306919	489530.122189	7.673810e-01	3	none	NaN	NaN
120	3	76	46	bathroom	sun_apmqjbnwghzuhhzh.tif	489530.891822	489531.150408	489531.965536	8.424509e-01	36	none	NaN	NaN
120	3	77	59	bathroom	sun_axyrejkiiaqiurjk.tif	489532.735313	489532.993897	489533.809109	7.924043e-01	49	none	NaN	NaN
120	3	78	42	bathroom	sun_apeeialkgkuxddgh.tif	489534.578809	489534.837390	489535.652551	7.840632e-01	32	none	NaN	NaN
120	3	79	24	bathroom	sun_agrwbmhcpmfuwmsg.tif	489536.422299	489536.680884	489537.496040	8.007454e-01	14	none	NaN	NaN
120	3	80	35	bathroom	sun_alotolagknyrgtsk.tif	489538.265789	489538.524382	489539.339684	7.173344e-01	25	37	489540.375440	1
120	3	81	57	bathroom	sun_axldvoqbuvuggfmq.tif	489541.151980	489541.410570	489542.225706	8.257687e-01	47	none	NaN	NaN
120	3	82	32	bathroom	sun_aleqenyvunhactkl.tif	489542.995473	489543.254066	489544.069297	7.423577e-01	22	none	NaN	NaN
120	3	83	55	bathroom	sun_avhrdrntsqrjzccq.tif	489544.838965	489545.097555	489545.912689	7.924043e-01	45	37	489546.711261	1
120	3	84	22	bathroom	sun_agguqiubmwhqqunb.tif	489547.483256	489547.741841	489548.556985	6.589467e-01	12	none	NaN	NaN
120	3	85	45	bathroom	sun_apkxzenqapsujocq.tif	489549.326744	489549.585324	489550.400476	7.340166e-01	35	none	NaN	NaN
120	3	86	20	bathroom	sun_afcoljnjfoxjtgja.tif	489551.170236	489551.428830	489552.243925	7.840632e-01	10	37	489553.111528	1
120	3	87	19	bathroom	sun_aclfzgynxzxlbepz.tif	489553.889599	489554.148185	489554.963419	7.590399e-01	9	none	NaN	NaN
120	3	88	31	bathroom	sun_akiytfaagpdsphgz.tif	489555.733091	489555.991676	489556.806999	7.590399e-01	21	none	NaN	NaN
120	3	89	47	bathroom	sun_apynckhmoftszqoq.tif	489557.576582	489557.835171	489558.650484	8.507920e-01	37	none	NaN	NaN
120	3	90	17	bathroom	sun_acegryoqftbzowsg.tif	489559.420071	489559.678663	489560.493953	6.839700e-01	7	none	NaN	NaN
120	3	91	33	bathroom	sun_aljolscmmzydegqp.tif	489561.263565	489561.522154	489562.337265	7.256755e-01	23	none	NaN	NaN
120	3	92	51	bathroom	sun_atstyziqcmkahyxk.tif	489563.107060	489563.365646	489564.180852	6.672878e-01	41	37	489564.935292	1
120	3	93	54	bathroom	sun_auzqhkafidnkrwmo.tif	489565.709633	489565.968228	489566.783451	8.174276e-01	44	none	NaN	NaN
120	3	94	18	bathroom	sun_acgyywnybuveqsro.tif	489567.553126	489567.811718	489568.626888	7.006522e-01	8	none	NaN	NaN
120	3	95	50	bathroom	sun_aspsyogrekjtfozg.tif	489569.396622	489569.655209	489570.470451	7.089933e-01	40	none	NaN	NaN
120	3	96	53	bathroom	sun_ausgutylgojavyoq.tif	489571.240115	489571.498701	489572.313866	7.757221e-01	43	none	NaN	NaN
120	3	97	56	bathroom	sun_awnqiikzaispgmwo.tif	489573.083602	489573.342191	489574.157401	8.090865e-01	46	37	489574.983233	1
120	3	98	49	bathroom	sun_asfwthctfqerjvxr.tif	489575.761256	489576.019842	489576.835073	7.590399e-01	39	none	NaN	NaN
120	3	99	44	bathroom	sun_apkruvsevgegsdwp.tif	489577.604751	489577.863336	489578.678626	6.589467e-01	34	none	NaN	NaN
120	3	100	29	bathroom	sun_ahqjwnzgolcaoidx.tif	489579.448240	489579.706831	489580.522037	8.341098e-01	19	none	NaN	NaN
120	4	1	68	kitchen	sun_aaxxjlsuzvqlgylf.tif	489586.029761	489586.288351	489586.986740	7.256755e-01	58	none	NaN	NaN
120	4	2	77	kitchen	sun_acxkpeoqbwcxfvip.tif	489587.756473	489588.015061	489588.713582	7.006522e-01	67	none	NaN	NaN
120	4	3	79	kitchen	sun_admlmbcdswaszruo.tif	489589.483183	489589.741768	489590.440140	8.174276e-01	69	none	NaN	NaN
120	4	4	86	kitchen	sun_aggjlwcdjsjcaemh.tif	489591.209887	489591.468475	489592.166826	7.089933e-01	76	none	NaN	NaN
120	4	5	94	kitchen	sun_ahywdevtimnqcsln.tif	489592.936602	489593.195191	489593.893522	7.006522e-01	84	none	NaN	NaN
120	4	6	95	kitchen	sun_aixorpehvfykdynp.tif	489594.663312	489594.921900	489595.620360	6.756289e-01	85	none	NaN	NaN
120	4	7	75	kitchen	sun_acgtpgfybqjmzeyw.tif	489596.390020	489596.648609	489597.347077	7.506988e-01	65	none	NaN	NaN
120	4	8	88	kitchen	sun_agubuxuukhzyzpdp.tif	489598.116728	489598.375319	489599.073741	6.589467e-01	78	none	NaN	NaN
120	4	9	85	kitchen	sun_afuyedyxivkhecmu.tif	489599.835100	489600.093689	489600.792130	7.840632e-01	75	37	489601.815310	1
120	4	10	104	kitchen	sun_auticobqsbwgoppi.tif	489602.587818	489602.846413	489603.544819	7.590399e-01	94	37	489608.423299	0
120	4	11	72	kitchen	sun_abpwyqmlzafvklqo.tif	489609.194365	489609.452954	489610.151353	7.924043e-01	62	none	NaN	NaN
120	4	12	66	kitchen	sun_aapllqyqlykszopd.tif	489610.921076	489611.179665	489611.878038	7.256755e-01	56	none	NaN	NaN
120	4	13	69	kitchen	sun_abdenxonkemggwsq.tif	489612.647785	489612.906372	489613.604741	8.090865e-01	59	37	489616.327412	0
120	4	14	108	kitchen	sun_aymvwlarqodbwuoc.tif	489617.102199	489617.360787	489618.059161	6.756289e-01	98	none	NaN	NaN
120	4	15	105	kitchen	sun_avszsnwsbuqfgzbn.tif	489618.828912	489619.087499	489619.785974	7.506988e-01	95	none	NaN	NaN
120	4	16	78	kitchen	sun_adgqasybjyktddhj.tif	489620.555621	489620.814209	489621.512592	8.007454e-01	68	none	NaN	NaN
120	4	17	101	kitchen	sun_aqeaevwwwjoqhzvl.tif	489622.282327	489622.540917	489623.239256	8.507920e-01	91	39	489624.007414	1
120	4	18	99	kitchen	sun_akcjzhbbjlbogpdi.tif	489624.784806	489625.043392	489625.741809	6.839700e-01	89	none	NaN	NaN
120	4	19	90	kitchen	sun_ahdycvpopffkzzsu.tif	489626.511516	489626.770106	489627.468554	7.423577e-01	80	none	NaN	NaN
120	4	20	70	kitchen	sun_abdxkyyxwfskuaqb.tif	489628.238228	489628.496818	489629.195222	8.341098e-01	60	none	NaN	NaN
120	4	21	81	kitchen	sun_aehawpgmrlhlvcow.tif	489629.964936	489630.223525	489630.921899	8.007454e-01	71	37	489631.839289	0
120	4	22	106	kitchen	sun_awcpdzzznmweyyhv.tif	489632.617563	489632.876155	489633.574539	8.090865e-01	96	none	NaN	NaN
120	4	23	93	kitchen	sun_ahspylgoovwmwvgk.tif	489634.344275	489634.602865	489635.301247	6.506056e-01	83	none	NaN	NaN
120	4	24	97	kitchen	sun_ajkqhtgcbgpcwrwn.tif	489636.070977	489636.329573	489637.028019	7.173344e-01	87	none	NaN	NaN
120	4	25	91	kitchen	sun_ahljzhgcdpomplvg.tif	489637.797694	489638.056281	489638.754758	7.256755e-01	81	none	NaN	NaN
120	4	26	96	kitchen	sun_ajcbwwvdlsvjyzje.tif	489639.524406	489639.782997	489640.481341	8.090865e-01	86	none	NaN	NaN
120	4	27	62	kitchen	labelme_kxvouciolcpqplr.tif	489641.251111	489641.509702	489642.208061	7.757221e-01	52	none	NaN	NaN
120	4	28	109	kitchen	sun_aypmqwcualkenuoe.tif	489642.969485	489643.228067	489643.926603	7.757221e-01	99	37	489644.703209	1
120	4	29	76	kitchen	sun_acwjdupvyjsugpay.tif	489645.480303	489645.738894	489646.437325	8.090865e-01	66	none	NaN	NaN
120	4	30	87	kitchen	sun_agorklincwxrdtga.tif	489647.207012	489647.465603	489648.164096	8.424509e-01	77	none	NaN	NaN
120	4	31	102	kitchen	sun_auaiucuqpdausiva.tif	489648.933723	489649.192311	489649.890725	8.341098e-01	92	none	NaN	NaN
120	4	32	110	kitchen	sun_azmutvzbxypaceni.tif	489650.660436	489650.919019	489651.617626	7.673810e-01	100	39	489653.807279	1
120	4	33	98	kitchen	sun_akchetnepxlcxhsu.tif	489654.580974	489654.839565	489655.537938	6.672878e-01	88	none	NaN	NaN
120	4	34	100	kitchen	sun_amjjdeyrggfqgmom.tif	489656.307690	489656.566285	489657.264787	7.340166e-01	90	37	489658.111220	1
120	4	35	107	kitchen	sun_axyyrmzcupyhlivc.tif	489658.885243	489659.143834	489659.842178	7.673810e-01	97	none	NaN	NaN
120	4	36	65	kitchen	sun_aamedkxepzlwuxes.tif	489660.611953	489660.870543	489661.569008	8.174276e-01	55	none	NaN	NaN
120	4	37	64	kitchen	sun_aadbddgrdsjugojn.tif	489662.338662	489662.597251	489663.295613	7.340166e-01	54	37	489664.015421	1
120	4	38	89	kitchen	sun_agzzivivdpnawacl.tif	489664.791091	489665.049684	489665.748203	8.424509e-01	79	none	NaN	NaN
120	4	39	103	kitchen	sun_aunzlwrbjumxhwdj.tif	489666.517800	489666.776387	489667.474812	6.839700e-01	93	none	NaN	NaN
120	4	40	71	kitchen	sun_abftihopvusyfakt.tif	489668.244515	489668.503103	489669.201561	7.423577e-01	61	none	NaN	NaN
120	4	41	83	kitchen	sun_aeqdocilnnpuvuhx.tif	489669.971224	489670.229814	489670.928140	6.506056e-01	73	none	NaN	NaN
120	4	42	73	kitchen	sun_abrcnpqqhmjwekyf.tif	489671.689606	489671.948180	489672.646691	6.506056e-01	63	none	NaN	NaN
120	4	43	84	kitchen	sun_aexklacwqwezaorf.tif	489673.416300	489673.674893	489674.373321	7.173344e-01	74	none	NaN	NaN
120	4	44	92	kitchen	sun_ahpczsiumwwocjkv.tif	489675.143011	489675.401601	489676.100078	7.673810e-01	82	none	NaN	NaN
120	4	45	82	kitchen	sun_aenotlpyftoioydp.tif	489676.869738	489677.128310	489677.826808	8.257687e-01	72	39	489678.631039	1
120	4	46	80	kitchen	sun_aegoxogugdkwpmpj.tif	489679.405566	489679.664155	489680.362568	6.923111e-01	70	none	NaN	NaN
120	4	47	61	kitchen	labelme_brsyyvweiuaazfr.tif	489681.132274	489681.390863	489682.089244	7.089933e-01	51	none	NaN	NaN
120	4	48	63	kitchen	labelme_rykdqxenmhulbdn.tif	489682.858986	489683.117574	489683.815966	8.174276e-01	53	37	489684.791341	1
120	4	49	67	kitchen	sun_aarfiyshqohlwkmo.tif	489685.561657	489685.820254	489686.518740	7.006522e-01	57	none	NaN	NaN
120	4	50	74	kitchen	sun_acfmftudsenhrfhy.tif	489687.288376	489687.546963	489688.245319	7.423577e-01	64	none	NaN	NaN
120	4	51	91	kitchen	sun_ahljzhgcdpomplvg.tif	489689.015083	489689.273673	489689.972171	7.924043e-01	81	none	NaN	NaN
120	4	52	85	kitchen	sun_afuyedyxivkhecmu.tif	489690.741793	489691.000379	489691.698823	8.257687e-01	75	none	NaN	NaN
120	4	53	78	kitchen	sun_adgqasybjyktddhj.tif	489692.468500	489692.727091	489693.425579	6.756289e-01	68	none	NaN	NaN
120	4	54	92	kitchen	sun_ahpczsiumwwocjkv.tif	489694.195214	489694.453802	489695.152274	6.589467e-01	82	none	NaN	NaN
120	4	55	87	kitchen	sun_agorklincwxrdtga.tif	489695.921921	489696.180512	489696.879039	8.257687e-01	77	none	NaN	NaN
120	4	56	102	kitchen	sun_auaiucuqpdausiva.tif	489697.648632	489697.907224	489698.605703	7.256755e-01	92	none	NaN	NaN
120	4	57	66	kitchen	sun_aapllqyqlykszopd.tif	489699.375344	489699.633928	489700.332498	8.007454e-01	56	39	489701.191509	1
120	4	58	106	kitchen	sun_awcpdzzznmweyyhv.tif	489701.969575	489702.228164	489702.926557	7.089933e-01	96	none	NaN	NaN
120	4	59	64	kitchen	sun_aadbddgrdsjugojn.tif	489703.696287	489703.954877	489704.653333	7.089933e-01	54	none	NaN	NaN
120	4	60	80	kitchen	sun_aegoxogugdkwpmpj.tif	489705.423001	489705.681587	489706.380005	6.672878e-01	70	none	NaN	NaN
120	4	61	73	kitchen	sun_abrcnpqqhmjwekyf.tif	489707.149706	489707.408296	489708.106679	7.673810e-01	63	none	NaN	NaN
120	4	62	105	kitchen	sun_avszsnwsbuqfgzbn.tif	489708.876422	489709.135009	489709.833468	7.423577e-01	95	none	NaN	NaN
120	4	63	62	kitchen	labelme_kxvouciolcpqplr.tif	489710.603128	489710.861717	489711.561277	7.173344e-01	52	none	NaN	NaN
120	4	64	89	kitchen	sun_agzzivivdpnawacl.tif	489712.329838	489712.588428	489713.286777	6.672878e-01	79	none	NaN	NaN
120	4	65	103	kitchen	sun_aunzlwrbjumxhwdj.tif	489714.056547	489714.315138	489715.013638	8.257687e-01	93	37	489715.863308	1
120	4	66	108	kitchen	sun_aymvwlarqodbwuoc.tif	489716.634096	489716.892682	489717.591169	8.424509e-01	98	none	NaN	NaN
120	4	67	72	kitchen	sun_abpwyqmlzafvklqo.tif	489718.360813	489718.619399	489719.317865	7.590399e-01	62	none	NaN	NaN
120	4	68	70	kitchen	sun_abdxkyyxwfskuaqb.tif	489720.087523	489720.346109	489721.044556	6.923111e-01	60	none	NaN	NaN
120	4	69	68	kitchen	sun_aaxxjlsuzvqlgylf.tif	489721.814231	489722.072818	489722.771278	6.756289e-01	58	37	489723.535322	1
120	4	70	110	kitchen	sun_azmutvzbxypaceni.tif	489724.308371	489724.566958	489725.265437	7.506988e-01	100	none	NaN	NaN
120	4	71	107	kitchen	sun_axyyrmzcupyhlivc.tif	489726.035081	489726.293672	489726.992162	6.923111e-01	97	none	NaN	NaN
120	4	72	97	kitchen	sun_ajkqhtgcbgpcwrwn.tif	489727.761789	489728.020377	489728.718861	7.340166e-01	87	none	NaN	NaN
120	4	73	65	kitchen	sun_aamedkxepzlwuxes.tif	489729.488496	489729.747082	489730.445588	7.590399e-01	55	39	489734.079033	1
120	4	74	99	kitchen	sun_akcjzhbbjlbogpdi.tif	489734.852143	489735.110733	489735.809170	6.839700e-01	89	none	NaN	NaN
120	4	75	94	kitchen	sun_ahywdevtimnqcsln.tif	489736.578854	489736.837442	489737.535805	7.840632e-01	84	none	NaN	NaN
120	4	76	83	kitchen	sun_aeqdocilnnpuvuhx.tif	489738.305563	489738.564152	489739.262667	8.341098e-01	73	none	NaN	NaN
120	4	77	86	kitchen	sun_aggjlwcdjsjcaemh.tif	489740.032271	489740.290856	489740.989277	6.672878e-01	76	none	NaN	NaN
120	4	78	95	kitchen	sun_aixorpehvfykdynp.tif	489741.758982	489742.017569	489742.716111	7.590399e-01	85	none	NaN	NaN
120	4	79	74	kitchen	sun_acfmftudsenhrfhy.tif	489743.485694	489743.744282	489744.442717	7.590399e-01	64	none	NaN	NaN
120	4	80	77	kitchen	sun_acxkpeoqbwcxfvip.tif	489745.212400	489745.470993	489746.169486	7.757221e-01	67	none	NaN	NaN
120	4	81	79	kitchen	sun_admlmbcdswaszruo.tif	489746.939114	489747.197700	489747.896078	7.924043e-01	69	none	NaN	NaN
120	4	82	84	kitchen	sun_aexklacwqwezaorf.tif	489748.665819	489748.924415	489749.622740	8.507920e-01	74	none	NaN	NaN
120	4	83	88	kitchen	sun_agubuxuukhzyzpdp.tif	489750.384189	489750.642776	489751.341218	7.924043e-01	78	none	NaN	NaN
120	4	84	109	kitchen	sun_aypmqwcualkenuoe.tif	489752.110897	489752.369487	489753.067857	8.424509e-01	99	none	NaN	NaN
120	4	85	63	kitchen	labelme_rykdqxenmhulbdn.tif	489753.837609	489754.096197	489754.794631	6.589467e-01	53	none	NaN	NaN
120	4	86	101	kitchen	sun_aqeaevwwwjoqhzvl.tif	489755.564324	489755.822912	489756.521313	8.341098e-01	91	none	NaN	NaN
120	4	87	93	kitchen	sun_ahspylgoovwmwvgk.tif	489757.291028	489757.549617	489758.248002	7.840632e-01	83	none	NaN	NaN
120	4	88	81	kitchen	sun_aehawpgmrlhlvcow.tif	489759.017738	489759.276331	489759.974719	7.340166e-01	71	none	NaN	NaN
120	4	89	90	kitchen	sun_ahdycvpopffkzzsu.tif	489760.744452	489761.003040	489761.701452	8.257687e-01	80	none	NaN	NaN
120	4	90	98	kitchen	sun_akchetnepxlcxhsu.tif	489762.462822	489762.721411	489763.419757	7.757221e-01	88	none	NaN	NaN
120	4	91	69	kitchen	sun_abdenxonkemggwsq.tif	489764.189526	489764.448122	489765.146641	6.923111e-01	59	none	NaN	NaN
120	4	92	96	kitchen	sun_ajcbwwvdlsvjyzje.tif	489765.916237	489766.174831	489766.873370	6.839700e-01	86	none	NaN	NaN
120	4	93	75	kitchen	sun_acgtpgfybqjmzeyw.tif	489767.642949	489767.901542	489768.600034	8.174276e-01	65	none	NaN	NaN
120	4	94	76	kitchen	sun_acwjdupvyjsugpay.tif	489769.369660	489769.628248	489770.326586	7.173344e-01	66	none	NaN	NaN
120	4	95	104	kitchen	sun_auticobqsbwgoppi.tif	489771.088031	489771.346614	489772.045016	8.007454e-01	94	none	NaN	NaN
120	4	96	82	kitchen	sun_aenotlpyftoioydp.tif	489772.814736	489773.073325	489773.771710	7.840632e-01	72	none	NaN	NaN
120	4	97	61	kitchen	labelme_brsyyvweiuaazfr.tif	489774.541445	489774.800039	489775.498496	7.006522e-01	51	none	NaN	NaN
120	4	98	71	kitchen	sun_abftihopvusyfakt.tif	489776.268160	489776.526741	489777.225358	6.589467e-01	61	none	NaN	NaN
120	4	99	67	kitchen	sun_aarfiyshqohlwkmo.tif	489777.994869	489778.253456	489778.951901	6.923111e-01	57	none	NaN	NaN
120	4	100	100	kitchen	sun_amjjdeyrggfqgmom.tif	489779.721574	489779.980169	489780.678547	7.506988e-01	90	none	NaN	NaN
120	5	1	47	bathroom	sun_apynckhmoftszqoq.tif	489786.478271	489786.736857	489787.443596	7.590399e-01	37	none	NaN	NaN
120	5	2	55	bathroom	sun_avhrdrntsqrjzccq.tif	489788.213318	489788.471908	489789.178731	6.506056e-01	45	39	489791.023289	1
120	5	3	45	bathroom	sun_apkxzenqapsujocq.tif	489791.800206	489792.058795	489792.765639	7.423577e-01	35	none	NaN	NaN
120	5	4	41	bathroom	sun_aoybiabnpadelefl.tif	489793.535252	489793.793847	489794.500521	7.089933e-01	31	none	NaN	NaN
120	5	5	21	bathroom	sun_aggnnqpdorgxpvce.tif	489795.261968	489795.520559	489796.227356	7.173344e-01	11	none	NaN	NaN
120	5	6	36	bathroom	sun_ambriybtogmepttm.tif	489796.997018	489797.255606	489797.962433	8.507920e-01	26	none	NaN	NaN
120	5	7	24	bathroom	sun_agrwbmhcpmfuwmsg.tif	489798.732067	489798.990661	489799.697446	6.756289e-01	14	none	NaN	NaN
120	5	8	37	bathroom	sun_amzlamotzwfkwjco.tif	489800.467124	489800.725709	489801.432573	7.006522e-01	27	none	NaN	NaN
120	5	9	20	bathroom	sun_afcoljnjfoxjtgja.tif	489802.202173	489802.460766	489803.167613	7.256755e-01	10	none	NaN	NaN
120	5	10	40	bathroom	sun_aofnryafpsjimzsb.tif	489803.937223	489804.195812	489804.902479	7.506988e-01	30	none	NaN	NaN
120	5	11	42	bathroom	sun_apeeialkgkuxddgh.tif	489805.663935	489805.922525	489806.629380	8.090865e-01	32	none	NaN	NaN
120	5	12	13	bathroom	sun_aavhrsfjbserjtht.tif	489807.398991	489807.657582	489808.364418	8.174276e-01	3	none	NaN	NaN
120	5	13	11	bathroom	labelme_sfxiulhjbhlyiyt.tif	489809.134037	489809.392625	489810.099491	7.256755e-01	1	none	NaN	NaN
120	5	14	34	bathroom	sun_alkosphxlxwjwgjd.tif	489810.869090	489811.127681	489811.834342	6.589467e-01	24	37	489812.935263	1
120	5	15	51	bathroom	sun_atstyziqcmkahyxk.tif	489813.713573	489813.972163	489814.678974	7.256755e-01	41	39	489816.215459	1
120	5	16	32	bathroom	sun_aleqenyvunhactkl.tif	489816.991821	489817.250414	489817.957150	7.840632e-01	22	none	NaN	NaN
120	5	17	26	bathroom	sun_ahaulkltgpkeeemi.tif	489818.726874	489818.985462	489819.692251	7.924043e-01	16	none	NaN	NaN
120	5	18	33	bathroom	sun_aljolscmmzydegqp.tif	489820.461923	489820.720511	489821.427215	7.006522e-01	23	37	489822.383294	1
120	5	19	28	bathroom	sun_ahijqszoswveeyji.tif	489823.156257	489823.414849	489824.121568	7.006522e-01	18	none	NaN	NaN
120	5	20	19	bathroom	sun_aclfzgynxzxlbepz.tif	489824.891309	489825.149899	489825.856585	7.590399e-01	9	none	NaN	NaN
120	5	21	35	bathroom	sun_alotolagknyrgtsk.tif	489826.618019	489826.876625	489827.583311	7.173344e-01	25	none	NaN	NaN
120	5	22	58	bathroom	sun_axxbkopsgyouuebh.tif	489828.353072	489828.611662	489829.318490	8.507920e-01	48	none	NaN	NaN
120	5	23	27	bathroom	sun_ahcvzmoyaycdoftf.tif	489830.088125	489830.346711	489831.053440	7.173344e-01	17	none	NaN	NaN
120	5	24	23	bathroom	sun_aghyqhbptboemmoq.tif	489831.823174	489832.081764	489832.788530	8.090865e-01	13	none	NaN	NaN
120	5	25	56	bathroom	sun_awnqiikzaispgmwo.tif	489833.558229	489833.816817	489834.523591	8.174276e-01	46	none	NaN	NaN
120	5	26	15	bathroom	sun_abjtwfukuwddzted.tif	489835.293279	489835.551871	489836.258617	7.423577e-01	5	none	NaN	NaN
120	5	27	48	bathroom	sun_aqrpegblszgcoujh.tif	489837.028327	489837.286917	489837.993667	8.424509e-01	38	none	NaN	NaN
120	5	28	18	bathroom	sun_acgyywnybuveqsro.tif	489838.763383	489839.021972	489839.728697	8.174276e-01	8	none	NaN	NaN
120	5	29	60	bathroom	sun_azqyogdvyhahyram.tif	489840.498432	489840.757023	489841.463803	8.007454e-01	50	none	NaN	NaN
120	5	30	46	bathroom	sun_apmqjbnwghzuhhzh.tif	489842.233485	489842.492072	489843.198829	6.756289e-01	36	none	NaN	NaN
120	5	31	30	bathroom	sun_ajlawzvmubibwbpy.tif	489843.968535	489844.227129	489844.933860	6.589467e-01	20	none	NaN	NaN
120	5	32	31	bathroom	sun_akiytfaagpdsphgz.tif	489845.703588	489845.962180	489846.668900	8.424509e-01	21	none	NaN	NaN
120	5	33	16	bathroom	sun_acduarbnmmoglmiv.tif	489847.438639	489847.697230	489848.404110	6.672878e-01	6	none	NaN	NaN
120	5	34	29	bathroom	sun_ahqjwnzgolcaoidx.tif	489849.173695	489849.432283	489850.139133	7.089933e-01	19	39	489851.951379	1
120	5	35	49	bathroom	sun_asfwthctfqerjvxr.tif	489852.727209	489852.985798	489853.692479	7.673810e-01	39	none	NaN	NaN
120	5	36	43	bathroom	sun_apjevzvycyhuqghb.tif	489854.453921	489854.712503	489855.419345	8.007454e-01	33	none	NaN	NaN
120	5	37	22	bathroom	sun_agguqiubmwhqqunb.tif	489856.188971	489856.447560	489857.154360	7.006522e-01	12	none	NaN	NaN
120	5	38	17	bathroom	sun_acegryoqftbzowsg.tif	489857.924052	489858.182612	489858.889326	6.672878e-01	7	none	NaN	NaN
120	5	39	44	bathroom	sun_apkruvsevgegsdwp.tif	489859.659071	489859.917665	489860.624373	7.757221e-01	34	39	489861.359264	1
120	5	40	52	bathroom	sun_aunuadmjocsddsrl.tif	489862.136524	489862.395118	489863.101977	8.007454e-01	42	none	NaN	NaN
120	5	41	59	bathroom	sun_axyrejkiiaqiurjk.tif	489863.871578	489864.130169	489864.836932	8.007454e-01	49	none	NaN	NaN
120	5	42	53	bathroom	sun_ausgutylgojavyoq.tif	489865.606627	489865.865224	489866.571907	7.089933e-01	43	none	NaN	NaN
120	5	43	12	bathroom	sun_aapitsgbtktqubfy.tif	489867.341685	489867.600271	489868.307130	6.589467e-01	2	none	NaN	NaN
120	5	44	25	bathroom	sun_agyqfjcfkdcydepw.tif	489869.076735	489869.335324	489870.042036	7.673810e-01	15	none	NaN	NaN
120	5	45	14	bathroom	sun_abapwbhyhkfixyex.tif	489870.811785	489871.070376	489871.777146	7.590399e-01	4	none	NaN	NaN
120	5	46	54	bathroom	sun_auzqhkafidnkrwmo.tif	489872.546838	489872.805429	489873.512311	8.090865e-01	44	none	NaN	NaN
120	5	47	39	bathroom	sun_anryaplzeujmzfkd.tif	489874.281891	489874.540476	489875.247299	7.840632e-01	29	none	NaN	NaN
120	5	48	38	bathroom	sun_anhioqovhscjqqwb.tif	489876.016938	489876.275529	489876.982307	6.756289e-01	28	none	NaN	NaN
120	5	49	57	bathroom	sun_axldvoqbuvuggfmq.tif	489877.751992	489878.010579	489878.717346	7.757221e-01	47	none	NaN	NaN
120	5	50	50	bathroom	sun_aspsyogrekjtfozg.tif	489879.487039	489879.745633	489880.452439	8.090865e-01	40	none	NaN	NaN
120	5	51	50	bathroom	sun_aspsyogrekjtfozg.tif	489881.222092	489881.480688	489882.187546	7.673810e-01	40	none	NaN	NaN
120	5	52	58	bathroom	sun_axxbkopsgyouuebh.tif	489882.957143	489883.215736	489883.922531	8.257687e-01	48	none	NaN	NaN
120	5	53	13	bathroom	sun_aavhrsfjbserjtht.tif	489884.683855	489884.942451	489885.649289	8.257687e-01	3	none	NaN	NaN
120	5	54	28	bathroom	sun_ahijqszoswveeyji.tif	489886.418913	489886.677498	489887.384344	7.423577e-01	18	none	NaN	NaN
120	5	55	31	bathroom	sun_akiytfaagpdsphgz.tif	489888.229027	489888.487621	489889.194461	7.590399e-01	21	none	NaN	NaN
120	5	56	14	bathroom	sun_abapwbhyhkfixyex.tif	489889.964084	489890.222674	489890.929548	8.341098e-01	4	none	NaN	NaN
120	5	57	26	bathroom	sun_ahaulkltgpkeeemi.tif	489891.699138	489891.957730	489892.664490	7.340166e-01	16	none	NaN	NaN
120	5	58	45	bathroom	sun_apkxzenqapsujocq.tif	489893.434186	489893.692781	489894.399532	8.257687e-01	35	none	NaN	NaN
120	5	59	52	bathroom	sun_aunuadmjocsddsrl.tif	489895.169240	489895.427831	489896.134715	7.840632e-01	42	none	NaN	NaN
120	5	60	15	bathroom	sun_abjtwfukuwddzted.tif	489896.904292	489897.162885	489897.869678	8.424509e-01	5	none	NaN	NaN
120	5	61	42	bathroom	sun_apeeialkgkuxddgh.tif	489898.639345	489898.897931	489899.604787	8.341098e-01	32	none	NaN	NaN
120	5	62	32	bathroom	sun_aleqenyvunhactkl.tif	489900.374390	489900.632985	489901.339644	8.341098e-01	22	none	NaN	NaN
120	5	63	34	bathroom	sun_alkosphxlxwjwgjd.tif	489902.101106	489902.359695	489903.066431	7.757221e-01	24	none	NaN	NaN
120	5	64	16	bathroom	sun_acduarbnmmoglmiv.tif	489903.836158	489904.094744	489904.801626	8.257687e-01	6	none	NaN	NaN
120	5	65	44	bathroom	sun_apkruvsevgegsdwp.tif	489905.571207	489905.829800	489906.536653	7.590399e-01	34	none	NaN	NaN
120	5	66	36	bathroom	sun_ambriybtogmepttm.tif	489907.306257	489907.564850	489908.271520	7.506988e-01	26	none	NaN	NaN
120	5	67	27	bathroom	sun_ahcvzmoyaycdoftf.tif	489909.032969	489909.291562	489909.998301	6.839700e-01	17	none	NaN	NaN
120	5	68	33	bathroom	sun_aljolscmmzydegqp.tif	489910.768024	489911.026612	489911.733300	8.174276e-01	23	39	489913.031186	1
120	5	69	49	bathroom	sun_asfwthctfqerjvxr.tif	489913.804360	489914.062951	489914.769730	6.923111e-01	39	none	NaN	NaN
120	5	70	46	bathroom	sun_apmqjbnwghzuhhzh.tif	489915.539416	489915.798000	489916.504674	6.589467e-01	36	39	489919.615248	1
120	5	71	60	bathroom	sun_azqyogdvyhahyram.tif	489920.385879	489920.644466	489921.351249	6.923111e-01	50	39	489922.503025	0
120	5	72	56	bathroom	sun_awnqiikzaispgmwo.tif	489923.280413	489923.538997	489924.245793	8.341098e-01	46	none	NaN	NaN
120	5	73	53	bathroom	sun_ausgutylgojavyoq.tif	489925.015469	489925.274051	489925.980832	7.924043e-01	43	none	NaN	NaN
120	5	74	12	bathroom	sun_aapitsgbtktqubfy.tif	489926.750517	489927.009107	489927.715921	7.924043e-01	2	none	NaN	NaN
120	5	75	38	bathroom	sun_anhioqovhscjqqwb.tif	489928.485568	489928.744157	489929.450871	6.923111e-01	28	none	NaN	NaN
120	5	76	47	bathroom	sun_apynckhmoftszqoq.tif	489930.220618	489930.479206	489931.186063	6.923111e-01	37	none	NaN	NaN
120	5	77	55	bathroom	sun_avhrdrntsqrjzccq.tif	489931.955669	489932.214258	489932.921033	6.839700e-01	45	none	NaN	NaN
120	5	78	29	bathroom	sun_ahqjwnzgolcaoidx.tif	489933.690718	489933.949314	489934.655994	8.424509e-01	19	none	NaN	NaN
120	5	79	20	bathroom	sun_afcoljnjfoxjtgja.tif	489935.417433	489935.676022	489936.382901	7.840632e-01	10	37	489937.495194	1
120	5	80	59	bathroom	sun_axyrejkiiaqiurjk.tif	489938.270255	489938.528846	489939.235601	6.506056e-01	49	none	NaN	NaN
120	5	81	39	bathroom	sun_anryaplzeujmzfkd.tif	489940.005248	489940.263903	489940.970566	7.256755e-01	29	none	NaN	NaN
120	5	82	18	bathroom	sun_acgyywnybuveqsro.tif	489941.732020	489941.990610	489942.697312	7.340166e-01	8	none	NaN	NaN
120	5	83	21	bathroom	sun_aggnnqpdorgxpvce.tif	489943.467069	489943.725653	489944.432479	7.089933e-01	11	none	NaN	NaN
120	5	84	37	bathroom	sun_amzlamotzwfkwjco.tif	489945.202121	489945.460712	489946.167557	7.173344e-01	27	39	489947.287264	1
120	5	85	11	bathroom	labelme_sfxiulhjbhlyiyt.tif	489948.063288	489948.321880	489949.028545	7.340166e-01	1	39	489950.063300	0
120	5	86	35	bathroom	sun_alotolagknyrgtsk.tif	489950.841043	489951.099629	489951.806449	7.506988e-01	25	37	489952.431141	1
120	5	87	30	bathroom	sun_ajlawzvmubibwbpy.tif	489953.201708	489953.460300	489954.167120	7.673810e-01	20	none	NaN	NaN
120	5	88	57	bathroom	sun_axldvoqbuvuggfmq.tif	489954.936763	489955.195348	489955.902131	6.839700e-01	47	none	NaN	NaN
120	5	89	22	bathroom	sun_agguqiubmwhqqunb.tif	489956.671813	489956.930400	489957.637151	6.756289e-01	12	none	NaN	NaN
120	5	90	19	bathroom	sun_aclfzgynxzxlbepz.tif	489958.406866	489958.665455	489959.372261	7.340166e-01	9	none	NaN	NaN
120	5	91	25	bathroom	sun_agyqfjcfkdcydepw.tif	489960.141937	489960.400504	489961.107378	6.672878e-01	15	37	489961.879282	1
120	5	92	43	bathroom	sun_apjevzvycyhuqghb.tif	489962.652737	489962.911325	489963.618201	6.672878e-01	33	none	NaN	NaN
120	5	93	54	bathroom	sun_auzqhkafidnkrwmo.tif	489964.387788	489964.646381	489965.353117	7.757221e-01	44	none	NaN	NaN
120	5	94	51	bathroom	sun_atstyziqcmkahyxk.tif	489966.122842	489966.381425	489967.088258	7.423577e-01	41	none	NaN	NaN
120	5	95	24	bathroom	sun_agrwbmhcpmfuwmsg.tif	489967.857892	489968.116483	489968.823201	6.839700e-01	14	none	NaN	NaN
120	5	96	23	bathroom	sun_aghyqhbptboemmoq.tif	489969.592940	489969.851535	489970.558339	6.923111e-01	13	37	489971.767431	0
120	5	97	40	bathroom	sun_aofnryafpsjimzsb.tif	489972.545865	489972.804456	489973.511126	6.506056e-01	30	none	NaN	NaN
120	5	98	41	bathroom	sun_aoybiabnpadelefl.tif	489974.272579	489974.531171	489975.237916	7.506988e-01	31	none	NaN	NaN
120	5	99	48	bathroom	sun_aqrpegblszgcoujh.tif	489976.007631	489976.266217	489976.973044	7.924043e-01	38	none	NaN	NaN
120	5	100	17	bathroom	sun_acegryoqftbzowsg.tif	489977.742677	489978.001271	489978.707970	8.257687e-01	7	none	NaN	NaN
120	6	1	64	kitchen	sun_aadbddgrdsjugojn.tif	489999.814539	490000.073129	490000.813300	8.424509e-01	54	none	NaN	NaN
120	6	2	81	kitchen	sun_aehawpgmrlhlvcow.tif	490001.582955	490001.841546	490002.581718	7.089933e-01	71	none	NaN	NaN
120	6	3	108	kitchen	sun_aymvwlarqodbwuoc.tif	490003.351375	490003.609966	490004.350041	6.839700e-01	98	none	NaN	NaN
120	6	4	65	kitchen	sun_aamedkxepzlwuxes.tif	490005.119791	490005.378385	490006.118535	8.257687e-01	55	none	NaN	NaN
120	6	5	87	kitchen	sun_agorklincwxrdtga.tif	490006.888210	490007.146799	490007.886906	8.174276e-01	77	none	NaN	NaN
120	6	6	90	kitchen	sun_ahdycvpopffkzzsu.tif	490008.656625	490008.915218	490009.655254	7.506988e-01	80	none	NaN	NaN
120	6	7	99	kitchen	sun_akcjzhbbjlbogpdi.tif	490010.416703	490010.675295	490011.415371	7.673810e-01	89	39	490012.414988	1
120	6	8	93	kitchen	sun_ahspylgoovwmwvgk.tif	490013.186111	490013.444705	490014.184730	7.006522e-01	83	none	NaN	NaN
120	6	9	62	kitchen	labelme_kxvouciolcpqplr.tif	490014.946196	490015.204781	490015.944852	6.672878e-01	52	none	NaN	NaN
120	6	10	69	kitchen	sun_abdenxonkemggwsq.tif	490016.714606	490016.973201	490017.713337	6.839700e-01	59	none	NaN	NaN
120	6	11	98	kitchen	sun_akchetnepxlcxhsu.tif	490018.483029	490018.741618	490019.481659	7.840632e-01	88	none	NaN	NaN
120	6	12	106	kitchen	sun_awcpdzzznmweyyhv.tif	490020.243102	490020.501692	490021.241762	7.924043e-01	96	none	NaN	NaN
120	6	13	109	kitchen	sun_aypmqwcualkenuoe.tif	490022.011523	490022.270115	490023.010355	6.923111e-01	99	none	NaN	NaN
120	6	14	100	kitchen	sun_amjjdeyrggfqgmom.tif	490023.779938	490024.038528	490024.778612	7.173344e-01	90	none	NaN	NaN
120	6	15	89	kitchen	sun_agzzivivdpnawacl.tif	490025.548357	490025.806948	490026.547066	8.257687e-01	79	none	NaN	NaN
120	6	16	103	kitchen	sun_aunzlwrbjumxhwdj.tif	490027.316779	490027.575367	490028.315505	6.923111e-01	93	none	NaN	NaN
120	6	17	78	kitchen	sun_adgqasybjyktddhj.tif	490029.085195	490029.343782	490030.083990	8.341098e-01	68	none	NaN	NaN
120	6	18	68	kitchen	sun_aaxxjlsuzvqlgylf.tif	490030.853611	490031.112199	490031.852281	8.257687e-01	58	none	NaN	NaN
120	6	19	71	kitchen	sun_abftihopvusyfakt.tif	490032.622027	490032.880618	490033.620736	7.089933e-01	61	none	NaN	NaN
120	6	20	105	kitchen	sun_avszsnwsbuqfgzbn.tif	490034.390451	490034.649032	490035.389098	6.506056e-01	95	37	490036.167133	0
120	6	21	73	kitchen	sun_abrcnpqqhmjwekyf.tif	490036.942975	490037.201566	490037.941791	7.590399e-01	63	none	NaN	NaN
120	6	22	67	kitchen	sun_aarfiyshqohlwkmo.tif	490038.711392	490038.969985	490039.710108	7.757221e-01	57	none	NaN	NaN
120	6	23	86	kitchen	sun_aggjlwcdjsjcaemh.tif	490040.479812	490040.738401	490041.478605	8.007454e-01	76	none	NaN	NaN
120	6	24	74	kitchen	sun_acfmftudsenhrfhy.tif	490042.248229	490042.506820	490043.246847	6.589467e-01	64	none	NaN	NaN
120	6	25	66	kitchen	sun_aapllqyqlykszopd.tif	490044.008303	490044.266897	490045.007056	7.173344e-01	56	none	NaN	NaN
120	6	26	95	kitchen	sun_aixorpehvfykdynp.tif	490045.776724	490046.035308	490046.775551	7.590399e-01	85	none	NaN	NaN
120	6	27	70	kitchen	sun_abdxkyyxwfskuaqb.tif	490047.545143	490047.803744	490048.543879	8.341098e-01	60	39	490049.414991	1
120	6	28	75	kitchen	sun_acgtpgfybqjmzeyw.tif	490050.189424	490050.448018	490051.188094	8.424509e-01	65	none	NaN	NaN
120	6	29	94	kitchen	sun_ahywdevtimnqcsln.tif	490051.957843	490052.216432	490052.956511	7.423577e-01	84	none	NaN	NaN
120	6	30	85	kitchen	sun_afuyedyxivkhecmu.tif	490053.726262	490053.984854	490054.725086	7.840632e-01	75	none	NaN	NaN
120	6	31	107	kitchen	sun_axyyrmzcupyhlivc.tif	490055.494680	490055.753271	490056.493421	8.174276e-01	97	none	NaN	NaN
120	6	32	91	kitchen	sun_ahljzhgcdpomplvg.tif	490057.263100	490057.521690	490058.261867	7.256755e-01	81	none	NaN	NaN
120	6	33	96	kitchen	sun_ajcbwwvdlsvjyzje.tif	490059.031516	490059.290110	490060.030211	7.757221e-01	86	39	490061.303182	1
120	6	34	82	kitchen	sun_aenotlpyftoioydp.tif	490062.076200	490062.334789	490063.074989	7.590399e-01	72	37	490063.855145	1
120	6	35	102	kitchen	sun_auaiucuqpdausiva.tif	490064.628727	490064.887314	490065.627418	8.007454e-01	92	37	490066.319274	1
120	6	36	72	kitchen	sun_abpwyqmlzafvklqo.tif	490067.097839	490067.356425	490068.096516	7.256755e-01	62	none	NaN	NaN
120	6	37	84	kitchen	sun_aexklacwqwezaorf.tif	490068.866256	490069.124847	490069.864957	7.673810e-01	74	39	490070.783100	1
120	6	38	101	kitchen	sun_aqeaevwwwjoqhzvl.tif	490071.560592	490071.819179	490072.559245	7.673810e-01	91	none	NaN	NaN
120	6	39	110	kitchen	sun_azmutvzbxypaceni.tif	490073.320667	490073.579257	490074.319286	6.589467e-01	100	none	NaN	NaN
120	6	40	83	kitchen	sun_aeqdocilnnpuvuhx.tif	490075.089086	490075.347672	490076.087771	8.007454e-01	73	none	NaN	NaN
120	6	41	77	kitchen	sun_acxkpeoqbwcxfvip.tif	490076.857501	490077.116090	490077.856179	8.257687e-01	67	none	NaN	NaN
120	6	42	63	kitchen	labelme_rykdqxenmhulbdn.tif	490078.625920	490078.884507	490079.624577	6.506056e-01	53	none	NaN	NaN
120	6	43	80	kitchen	sun_aegoxogugdkwpmpj.tif	490080.386001	490080.644590	490081.384813	7.089933e-01	70	none	NaN	NaN
120	6	44	79	kitchen	sun_admlmbcdswaszruo.tif	490082.154414	490082.413007	490083.153204	7.924043e-01	69	37	490083.847088	1
120	6	45	61	kitchen	labelme_brsyyvweiuaazfr.tif	490084.623524	490084.882119	490085.622334	7.006522e-01	51	none	NaN	NaN
120	6	46	97	kitchen	sun_ajkqhtgcbgpcwrwn.tif	490086.391945	490086.650537	490087.390788	7.089933e-01	87	none	NaN	NaN
120	6	47	88	kitchen	sun_agubuxuukhzyzpdp.tif	490088.160365	490088.418952	490089.159145	7.340166e-01	78	none	NaN	NaN
120	6	48	104	kitchen	sun_auticobqsbwgoppi.tif	490089.928783	490090.187373	490090.927613	7.757221e-01	94	none	NaN	NaN
120	6	49	76	kitchen	sun_acwjdupvyjsugpay.tif	490091.697199	490091.955788	490092.695829	7.590399e-01	66	none	NaN	NaN
120	6	50	92	kitchen	sun_ahpczsiumwwocjkv.tif	490093.457277	490093.715868	490094.455974	7.173344e-01	82	none	NaN	NaN
120	6	51	105	kitchen	sun_avszsnwsbuqfgzbn.tif	490095.225692	490095.484281	490096.224517	8.257687e-01	95	none	NaN	NaN
120	6	52	92	kitchen	sun_ahpczsiumwwocjkv.tif	490096.994111	490097.252699	490097.992943	8.341098e-01	82	none	NaN	NaN
120	6	53	83	kitchen	sun_aeqdocilnnpuvuhx.tif	490098.762529	490099.021117	490099.761196	7.340166e-01	73	none	NaN	NaN
120	6	54	94	kitchen	sun_ahywdevtimnqcsln.tif	490100.530947	490100.789533	490101.529614	8.090865e-01	84	none	NaN	NaN
120	6	55	101	kitchen	sun_aqeaevwwwjoqhzvl.tif	490102.299366	490102.557958	490103.298163	7.006522e-01	91	none	NaN	NaN
120	6	56	81	kitchen	sun_aehawpgmrlhlvcow.tif	490104.067785	490104.326378	490105.066581	6.839700e-01	71	none	NaN	NaN
120	6	57	87	kitchen	sun_agorklincwxrdtga.tif	490105.836198	490106.094794	490106.835017	8.090865e-01	77	none	NaN	NaN
120	6	58	89	kitchen	sun_agzzivivdpnawacl.tif	490107.604617	490107.863209	490108.603450	7.256755e-01	79	none	NaN	NaN
120	6	59	74	kitchen	sun_acfmftudsenhrfhy.tif	490109.373036	490109.631631	490110.371790	8.007454e-01	64	none	NaN	NaN
120	6	60	67	kitchen	sun_aarfiyshqohlwkmo.tif	490111.141456	490111.400041	490112.140294	6.923111e-01	57	none	NaN	NaN
120	6	61	63	kitchen	labelme_rykdqxenmhulbdn.tif	490112.909875	490113.168455	490113.908646	6.672878e-01	53	none	NaN	NaN
120	6	62	84	kitchen	sun_aexklacwqwezaorf.tif	490114.678290	490114.936879	490115.677056	6.589467e-01	74	none	NaN	NaN
120	6	63	103	kitchen	sun_aunzlwrbjumxhwdj.tif	490116.446708	490116.705299	490117.445437	6.923111e-01	93	37	490118.431282	1
120	6	64	91	kitchen	sun_ahljzhgcdpomplvg.tif	490119.207774	490119.466369	490120.206503	6.923111e-01	81	none	NaN	NaN
120	6	65	62	kitchen	labelme_kxvouciolcpqplr.tif	490120.976196	490121.234785	490121.975014	7.423577e-01	52	39	490123.223328	1
120	6	66	106	kitchen	sun_awcpdzzznmweyyhv.tif	490123.995852	490124.254443	490124.994546	6.672878e-01	96	none	NaN	NaN
120	6	67	68	kitchen	sun_aaxxjlsuzvqlgylf.tif	490125.764269	490126.022856	490126.763100	7.506988e-01	58	none	NaN	NaN
120	6	68	65	kitchen	sun_aamedkxepzlwuxes.tif	490127.532688	490127.791277	490128.531374	7.340166e-01	55	none	NaN	NaN
120	6	69	96	kitchen	sun_ajcbwwvdlsvjyzje.tif	490129.301108	490129.559697	490130.299935	7.006522e-01	86	none	NaN	NaN
120	6	70	110	kitchen	sun_azmutvzbxypaceni.tif	490131.069521	490131.328114	490132.068168	8.424509e-01	100	none	NaN	NaN
120	6	71	77	kitchen	sun_acxkpeoqbwcxfvip.tif	490132.829604	490133.088194	490133.828419	8.507920e-01	67	39	490134.655197	1
120	6	72	86	kitchen	sun_aggjlwcdjsjcaemh.tif	490135.432175	490135.690766	490136.430858	7.924043e-01	76	none	NaN	NaN
120	6	73	64	kitchen	sun_aadbddgrdsjugojn.tif	490137.200596	490137.459183	490138.199331	6.756289e-01	54	none	NaN	NaN
120	6	74	76	kitchen	sun_acwjdupvyjsugpay.tif	490138.969016	490139.227602	490139.967773	8.174276e-01	66	none	NaN	NaN
120	6	75	104	kitchen	sun_auticobqsbwgoppi.tif	490140.737434	490140.996023	490141.736169	8.507920e-01	94	none	NaN	NaN
120	6	76	95	kitchen	sun_aixorpehvfykdynp.tif	490142.505851	490142.764437	490143.504535	7.506988e-01	85	none	NaN	NaN
120	6	77	109	kitchen	sun_aypmqwcualkenuoe.tif	490144.274271	490144.532858	490145.272992	8.341098e-01	99	none	NaN	NaN
120	6	78	108	kitchen	sun_aymvwlarqodbwuoc.tif	490146.042690	490146.301276	490147.041437	6.756289e-01	98	37	490148.295152	1
120	6	79	100	kitchen	sun_amjjdeyrggfqgmom.tif	490149.070685	490149.329277	490150.069475	7.590399e-01	90	none	NaN	NaN
120	6	80	99	kitchen	sun_akcjzhbbjlbogpdi.tif	490150.839101	490151.097693	490151.837863	6.589467e-01	89	none	NaN	NaN
120	6	81	70	kitchen	sun_abdxkyyxwfskuaqb.tif	490152.607520	490152.866104	490153.606322	7.173344e-01	60	none	NaN	NaN
120	6	82	75	kitchen	sun_acgtpgfybqjmzeyw.tif	490154.375941	490154.634530	490155.374754	6.672878e-01	65	37	490156.079235	1
120	6	83	90	kitchen	sun_ahdycvpopffkzzsu.tif	490156.853393	490157.111983	490157.852031	6.756289e-01	80	none	NaN	NaN
120	6	84	97	kitchen	sun_ajkqhtgcbgpcwrwn.tif	490158.621811	490158.880398	490159.620640	6.839700e-01	87	none	NaN	NaN
120	6	85	88	kitchen	sun_agubuxuukhzyzpdp.tif	490160.390228	490160.648809	490161.389340	6.506056e-01	78	none	NaN	NaN
120	6	86	80	kitchen	sun_aegoxogugdkwpmpj.tif	490162.158646	490162.417237	490163.157469	8.090865e-01	70	none	NaN	NaN
120	6	87	82	kitchen	sun_aenotlpyftoioydp.tif	490163.927061	490164.185653	490164.925796	7.256755e-01	72	none	NaN	NaN
120	6	88	102	kitchen	sun_auaiucuqpdausiva.tif	490165.695481	490165.954066	490166.694245	7.924043e-01	92	39	490167.439139	1
120	6	89	66	kitchen	sun_aapllqyqlykszopd.tif	490168.214646	490168.473230	490169.213434	7.840632e-01	56	none	NaN	NaN
120	6	90	78	kitchen	sun_adgqasybjyktddhj.tif	490169.983060	490170.241651	490170.981729	8.090865e-01	68	none	NaN	NaN
120	6	91	61	kitchen	labelme_brsyyvweiuaazfr.tif	490171.751479	490172.010070	490172.750127	8.174276e-01	51	none	NaN	NaN
120	6	92	79	kitchen	sun_admlmbcdswaszruo.tif	490173.519896	490173.778487	490174.518824	8.424509e-01	69	37	490175.223265	1
120	6	93	73	kitchen	sun_abrcnpqqhmjwekyf.tif	490175.997347	490176.255942	490176.996112	7.673810e-01	63	none	NaN	NaN
120	6	94	69	kitchen	sun_abdenxonkemggwsq.tif	490177.765758	490178.024353	490178.764471	6.756289e-01	59	none	NaN	NaN
120	6	95	98	kitchen	sun_akchetnepxlcxhsu.tif	490179.534184	490179.792778	490180.533002	7.757221e-01	88	none	NaN	NaN
120	6	96	107	kitchen	sun_axyyrmzcupyhlivc.tif	490181.302609	490181.561196	490182.301384	7.840632e-01	97	none	NaN	NaN
120	6	97	71	kitchen	sun_abftihopvusyfakt.tif	490183.071024	490183.329608	490184.069859	7.506988e-01	61	none	NaN	NaN
120	6	98	85	kitchen	sun_afuyedyxivkhecmu.tif	490184.839443	490185.098028	490185.838091	7.340166e-01	75	none	NaN	NaN
120	6	99	93	kitchen	sun_ahspylgoovwmwvgk.tif	490186.607859	490186.866448	490187.606572	7.423577e-01	83	none	NaN	NaN
120	6	100	72	kitchen	sun_abpwyqmlzafvklqo.tif	490188.376274	490188.634880	490189.374924	7.423577e-01	62	none	NaN	NaN
120	7	1	30	bathroom	sun_ajlawzvmubibwbpy.tif	490203.516267	490203.774855	490204.465040	6.672878e-01	20	37	490205.215073	1
120	7	2	24	bathroom	sun_agrwbmhcpmfuwmsg.tif	490205.985380	490206.243973	490206.934118	7.423577e-01	14	none	NaN	NaN
120	7	3	18	bathroom	sun_acgyywnybuveqsro.tif	490207.703749	490207.962340	490208.652322	7.673810e-01	8	none	NaN	NaN
120	7	4	11	bathroom	labelme_sfxiulhjbhlyiyt.tif	490209.413775	490209.672369	490210.362410	7.506988e-01	1	none	NaN	NaN
120	7	5	36	bathroom	sun_ambriybtogmepttm.tif	490211.132145	490211.390732	490212.080868	7.840632e-01	26	none	NaN	NaN
120	7	6	59	bathroom	sun_axyrejkiiaqiurjk.tif	490212.850515	490213.109105	490213.799257	8.007454e-01	49	37	490214.559243	0
120	7	7	41	bathroom	sun_aoybiabnpadelefl.tif	490215.336309	490215.594901	490216.284880	7.006522e-01	31	none	NaN	NaN
120	7	8	27	bathroom	sun_ahcvzmoyaycdoftf.tif	490217.046334	490217.304928	490217.995014	7.340166e-01	17	none	NaN	NaN
120	7	9	33	bathroom	sun_aljolscmmzydegqp.tif	490218.764703	490219.023293	490219.713313	7.423577e-01	23	none	NaN	NaN
120	7	10	19	bathroom	sun_aclfzgynxzxlbepz.tif	490220.483075	490220.741662	490221.431701	6.756289e-01	9	none	NaN	NaN
120	7	11	50	bathroom	sun_aspsyogrekjtfozg.tif	490222.201440	490222.460026	490223.150067	7.506988e-01	40	none	NaN	NaN
120	7	12	25	bathroom	sun_agyqfjcfkdcydepw.tif	490223.919813	490224.178397	490224.868576	6.506056e-01	15	37	490225.687248	1
120	7	13	48	bathroom	sun_aqrpegblszgcoujh.tif	490226.463995	490226.722587	490227.412701	8.007454e-01	38	none	NaN	NaN
120	7	14	52	bathroom	sun_aunuadmjocsddsrl.tif	490228.182366	490228.440953	490229.130942	8.341098e-01	42	none	NaN	NaN
120	7	15	45	bathroom	sun_apkxzenqapsujocq.tif	490229.892393	490230.150978	490230.841155	7.924043e-01	35	none	NaN	NaN
120	7	16	54	bathroom	sun_auzqhkafidnkrwmo.tif	490231.610759	490231.869350	490232.559449	6.839700e-01	44	none	NaN	NaN
120	7	17	43	bathroom	sun_apjevzvycyhuqghb.tif	490233.320785	490233.579376	490234.269358	6.923111e-01	33	37	490234.919217	1
120	7	18	23	bathroom	sun_aghyqhbptboemmoq.tif	490235.689795	490235.948386	490236.638586	7.590399e-01	13	none	NaN	NaN
120	7	19	57	bathroom	sun_axldvoqbuvuggfmq.tif	490237.408166	490237.666755	490238.356818	7.506988e-01	47	none	NaN	NaN
120	7	20	13	bathroom	sun_aavhrsfjbserjtht.tif	490239.126537	490239.385128	490240.075167	8.174276e-01	3	none	NaN	NaN
120	7	21	28	bathroom	sun_ahijqszoswveeyji.tif	490240.844905	490241.103491	490241.793750	7.340166e-01	18	39	490242.854915	1
120	7	22	51	bathroom	sun_atstyziqcmkahyxk.tif	490243.630996	490243.889584	490244.579612	7.256755e-01	41	none	NaN	NaN
120	7	23	55	bathroom	sun_avhrdrntsqrjzccq.tif	490245.349363	490245.607954	490246.297989	7.089933e-01	45	none	NaN	NaN
120	7	24	40	bathroom	sun_aofnryafpsjimzsb.tif	490247.067735	490247.326327	490248.016514	6.923111e-01	30	none	NaN	NaN
120	7	25	44	bathroom	sun_apkruvsevgegsdwp.tif	490248.786104	490249.044685	490249.734797	8.090865e-01	34	none	NaN	NaN
120	7	26	42	bathroom	sun_apeeialkgkuxddgh.tif	490250.504468	490250.763060	490251.453226	8.174276e-01	32	none	NaN	NaN
120	7	27	20	bathroom	sun_afcoljnjfoxjtgja.tif	490252.222839	490252.481428	490253.171629	7.173344e-01	10	none	NaN	NaN
120	7	28	17	bathroom	sun_acegryoqftbzowsg.tif	490253.941205	490254.199791	490254.889870	8.257687e-01	7	none	NaN	NaN
120	7	29	37	bathroom	sun_amzlamotzwfkwjco.tif	490255.659571	490255.918164	490256.608180	6.923111e-01	27	none	NaN	NaN
120	7	30	16	bathroom	sun_acduarbnmmoglmiv.tif	490257.377944	490257.636536	490258.326728	6.839700e-01	6	none	NaN	NaN
120	7	31	34	bathroom	sun_alkosphxlxwjwgjd.tif	490259.096311	490259.354893	490260.045087	8.341098e-01	24	none	NaN	NaN
120	7	32	49	bathroom	sun_asfwthctfqerjvxr.tif	490260.814683	490261.073265	490261.763283	7.673810e-01	39	none	NaN	NaN
120	7	33	31	bathroom	sun_akiytfaagpdsphgz.tif	490262.533048	490262.791635	490263.481758	7.924043e-01	21	none	NaN	NaN
120	7	34	53	bathroom	sun_ausgutylgojavyoq.tif	490264.251421	490264.510006	490265.200095	7.089933e-01	43	39	490266.087297	1
120	7	35	39	bathroom	sun_anryaplzeujmzfkd.tif	490266.862338	490267.120924	490267.811061	8.424509e-01	29	none	NaN	NaN
120	7	36	21	bathroom	sun_aggnnqpdorgxpvce.tif	490268.580705	490268.839292	490269.529468	7.924043e-01	11	39	490270.455192	1
120	7	37	56	bathroom	sun_awnqiikzaispgmwo.tif	490271.233330	490271.491924	490272.181978	7.340166e-01	46	none	NaN	NaN
120	7	38	14	bathroom	sun_abapwbhyhkfixyex.tif	490272.951704	490273.210287	490273.900355	8.174276e-01	4	none	NaN	NaN
120	7	39	60	bathroom	sun_azqyogdvyhahyram.tif	490274.670066	490274.928658	490275.618845	7.590399e-01	50	none	NaN	NaN
120	7	40	38	bathroom	sun_anhioqovhscjqqwb.tif	490276.388435	490276.647026	490277.337089	8.257687e-01	28	none	NaN	NaN
120	7	41	47	bathroom	sun_apynckhmoftszqoq.tif	490278.106802	490278.365392	490279.055590	6.506056e-01	37	none	NaN	NaN
120	7	42	12	bathroom	sun_aapitsgbtktqubfy.tif	490279.825176	490280.083762	490280.773801	8.007454e-01	2	none	NaN	NaN
120	7	43	22	bathroom	sun_agguqiubmwhqqunb.tif	490281.543544	490281.802134	490282.492247	7.423577e-01	12	37	490285.335035	1
120	7	44	46	bathroom	sun_apmqjbnwghzuhhzh.tif	490286.106396	490286.364979	490287.055038	8.341098e-01	36	none	NaN	NaN
120	7	45	58	bathroom	sun_axxbkopsgyouuebh.tif	490287.824763	490288.083349	490288.773363	8.257687e-01	48	none	NaN	NaN
120	7	46	35	bathroom	sun_alotolagknyrgtsk.tif	490289.543135	490289.801724	490290.491877	8.424509e-01	25	none	NaN	NaN
120	7	47	26	bathroom	sun_ahaulkltgpkeeemi.tif	490291.261494	490291.520088	490292.210202	8.090865e-01	16	none	NaN	NaN
120	7	48	29	bathroom	sun_ahqjwnzgolcaoidx.tif	490292.979867	490293.238456	490293.928622	6.672878e-01	19	none	NaN	NaN
120	7	49	32	bathroom	sun_aleqenyvunhactkl.tif	490294.698236	490294.956819	490295.646999	7.590399e-01	22	none	NaN	NaN
120	7	50	15	bathroom	sun_abjtwfukuwddzted.tif	490296.416608	490296.675190	490297.365384	6.589467e-01	5	none	NaN	NaN
120	7	51	16	bathroom	sun_acduarbnmmoglmiv.tif	490298.134970	490298.393563	490299.083554	7.173344e-01	6	none	NaN	NaN
120	7	52	53	bathroom	sun_ausgutylgojavyoq.tif	490299.845003	490300.103589	490300.793789	8.341098e-01	43	none	NaN	NaN
120	7	53	23	bathroom	sun_aghyqhbptboemmoq.tif	490301.563370	490301.821959	490302.512074	7.757221e-01	13	none	NaN	NaN
120	7	54	17	bathroom	sun_acegryoqftbzowsg.tif	490303.281739	490303.540323	490304.230351	6.672878e-01	7	none	NaN	NaN
120	7	55	32	bathroom	sun_aleqenyvunhactkl.tif	490305.000104	490305.258693	490305.948722	8.424509e-01	22	37	490306.726924	1
120	7	56	37	bathroom	sun_amzlamotzwfkwjco.tif	490307.502584	490307.761173	490308.451284	8.090865e-01	27	none	NaN	NaN
120	7	57	59	bathroom	sun_axyrejkiiaqiurjk.tif	490309.220952	490309.479542	490310.169670	7.506988e-01	49	37	490311.319109	0
120	7	58	41	bathroom	sun_aoybiabnpadelefl.tif	490312.090458	490312.349050	490313.039247	7.006522e-01	31	none	NaN	NaN
120	7	59	26	bathroom	sun_ahaulkltgpkeeemi.tif	490313.808823	490314.067416	490314.757436	8.090865e-01	16	none	NaN	NaN
120	7	60	55	bathroom	sun_avhrdrntsqrjzccq.tif	490315.527200	490315.785786	490316.475838	6.756289e-01	45	none	NaN	NaN
120	7	61	40	bathroom	sun_aofnryafpsjimzsb.tif	490317.245564	490317.504152	490318.194247	7.340166e-01	30	none	NaN	NaN
120	7	62	33	bathroom	sun_aljolscmmzydegqp.tif	490318.963931	490319.222524	490319.912590	6.923111e-01	23	none	NaN	NaN
120	7	63	24	bathroom	sun_agrwbmhcpmfuwmsg.tif	490320.682302	490320.940889	490321.630978	7.590399e-01	14	none	NaN	NaN
120	7	64	39	bathroom	sun_anryaplzeujmzfkd.tif	490322.400671	490322.659258	490323.349249	8.507920e-01	29	none	NaN	NaN
120	7	65	38	bathroom	sun_anhioqovhscjqqwb.tif	490324.110698	490324.369288	490325.059483	6.589467e-01	28	none	NaN	NaN
120	7	66	15	bathroom	sun_abjtwfukuwddzted.tif	490325.829066	490326.087654	490326.777640	6.756289e-01	5	none	NaN	NaN
120	7	67	42	bathroom	sun_apeeialkgkuxddgh.tif	490327.539090	490327.797680	490328.487685	7.840632e-01	32	none	NaN	NaN
120	7	68	11	bathroom	labelme_sfxiulhjbhlyiyt.tif	490329.249120	490329.507704	490330.197716	8.507920e-01	1	none	NaN	NaN
120	7	69	12	bathroom	sun_aapitsgbtktqubfy.tif	490330.967489	490331.226078	490331.916180	6.839700e-01	2	none	NaN	NaN
120	7	70	43	bathroom	sun_apjevzvycyhuqghb.tif	490332.685855	490332.944445	490333.634432	7.256755e-01	33	none	NaN	NaN
120	7	71	47	bathroom	sun_apynckhmoftszqoq.tif	490334.395885	490334.654472	490335.344683	8.007454e-01	37	37	490336.127118	1
120	7	72	34	bathroom	sun_alkosphxlxwjwgjd.tif	490336.898361	490337.156951	490337.846985	7.590399e-01	24	none	NaN	NaN
120	7	73	30	bathroom	sun_ajlawzvmubibwbpy.tif	490338.608392	490338.866976	490339.557113	7.173344e-01	20	none	NaN	NaN
120	7	74	56	bathroom	sun_awnqiikzaispgmwo.tif	490340.326756	490340.585346	490341.275454	6.589467e-01	46	none	NaN	NaN
120	7	75	36	bathroom	sun_ambriybtogmepttm.tif	490342.045126	490342.303714	490342.993827	8.174276e-01	26	none	NaN	NaN
120	7	76	46	bathroom	sun_apmqjbnwghzuhhzh.tif	490343.763492	490344.022080	490344.712197	6.672878e-01	36	none	NaN	NaN
120	7	77	14	bathroom	sun_abapwbhyhkfixyex.tif	490345.481859	490345.740446	490346.430578	7.757221e-01	4	none	NaN	NaN
120	7	78	19	bathroom	sun_aclfzgynxzxlbepz.tif	490347.200228	490347.458822	490348.148922	6.923111e-01	9	none	NaN	NaN
120	7	79	25	bathroom	sun_agyqfjcfkdcydepw.tif	490348.918599	490349.177183	490349.867239	7.006522e-01	15	none	NaN	NaN
120	7	80	13	bathroom	sun_aavhrsfjbserjtht.tif	490350.636968	490350.895556	490351.585685	7.256755e-01	3	none	NaN	NaN
120	7	81	60	bathroom	sun_azqyogdvyhahyram.tif	490352.355339	490352.613925	490353.304093	7.423577e-01	50	none	NaN	NaN
120	7	82	50	bathroom	sun_aspsyogrekjtfozg.tif	490354.073710	490354.332293	490355.022427	6.506056e-01	40	39	490355.815144	1
120	7	83	22	bathroom	sun_agguqiubmwhqqunb.tif	490356.592864	490356.851452	490357.541524	6.589467e-01	12	none	NaN	NaN
120	7	84	20	bathroom	sun_afcoljnjfoxjtgja.tif	490358.311231	490358.569820	490359.259962	8.257687e-01	10	none	NaN	NaN
120	7	85	18	bathroom	sun_acgyywnybuveqsro.tif	490360.029600	490360.288187	490360.978173	6.756289e-01	8	none	NaN	NaN
120	7	86	58	bathroom	sun_axxbkopsgyouuebh.tif	490361.739631	490361.998217	490362.688278	7.757221e-01	48	none	NaN	NaN
120	7	87	35	bathroom	sun_alotolagknyrgtsk.tif	490363.458000	490363.716591	490364.406705	7.256755e-01	25	none	NaN	NaN
120	7	88	44	bathroom	sun_apkruvsevgegsdwp.tif	490365.176358	490365.434958	490366.124993	7.006522e-01	34	none	NaN	NaN
120	7	89	48	bathroom	sun_aqrpegblszgcoujh.tif	490366.894733	490367.153323	490367.843453	7.840632e-01	38	none	NaN	NaN
120	7	90	45	bathroom	sun_apkxzenqapsujocq.tif	490368.613101	490368.871692	490369.561877	7.840632e-01	35	none	NaN	NaN
120	7	91	57	bathroom	sun_axldvoqbuvuggfmq.tif	490370.331472	490370.590064	490371.280152	7.089933e-01	47	39	490372.518920	1
120	7	92	51	bathroom	sun_atstyziqcmkahyxk.tif	490373.292738	490373.551326	490374.241335	7.173344e-01	41	none	NaN	NaN
120	7	93	31	bathroom	sun_akiytfaagpdsphgz.tif	490375.002764	490375.261355	490375.951484	7.924043e-01	21	none	NaN	NaN
120	7	94	29	bathroom	sun_ahqjwnzgolcaoidx.tif	490376.721133	490376.979721	490377.669816	8.257687e-01	19	none	NaN	NaN
120	7	95	54	bathroom	sun_auzqhkafidnkrwmo.tif	490378.439501	490378.698088	490379.388191	8.424509e-01	44	37	490380.191171	1
120	7	96	49	bathroom	sun_asfwthctfqerjvxr.tif	490380.967002	490381.225591	490381.915771	7.757221e-01	39	none	NaN	NaN
120	7	97	52	bathroom	sun_aunuadmjocsddsrl.tif	490382.685376	490382.943962	490383.633946	7.673810e-01	42	none	NaN	NaN
120	7	98	28	bathroom	sun_ahijqszoswveeyji.tif	490384.395401	490384.653979	490385.344185	6.839700e-01	18	none	NaN	NaN
120	7	99	21	bathroom	sun_aggnnqpdorgxpvce.tif	490386.113766	490386.372356	490387.062361	7.089933e-01	11	39	490388.575172	0
120	7	100	27	bathroom	sun_ahcvzmoyaycdoftf.tif	490389.350301	490389.608892	490390.298991	7.673810e-01	17	none	NaN	NaN
120	8	1	66	kitchen	sun_aapllqyqlykszopd.tif	490414.717092	490414.975680	490415.657486	6.756289e-01	56	none	NaN	NaN
120	8	2	91	kitchen	sun_ahljzhgcdpomplvg.tif	490416.427121	490416.685714	490417.367492	7.590399e-01	81	37	490418.319030	1
120	8	3	104	kitchen	sun_auticobqsbwgoppi.tif	490419.096431	490419.355017	490420.036832	8.507920e-01	94	none	NaN	NaN
120	8	4	109	kitchen	sun_aypmqwcualkenuoe.tif	490420.806457	490421.065044	490421.746753	7.757221e-01	99	none	NaN	NaN
120	8	5	81	kitchen	sun_aehawpgmrlhlvcow.tif	490422.516487	490422.775070	490423.456938	7.089933e-01	71	37	490424.095135	1
120	8	6	101	kitchen	sun_aqeaevwwwjoqhzvl.tif	490424.868816	490425.127406	490425.809213	7.256755e-01	91	none	NaN	NaN
120	8	7	85	kitchen	sun_afuyedyxivkhecmu.tif	490426.578842	490426.837428	490427.519240	8.257687e-01	75	none	NaN	NaN
120	8	8	83	kitchen	sun_aeqdocilnnpuvuhx.tif	490428.280531	490428.539116	490429.220773	6.923111e-01	73	none	NaN	NaN
120	8	9	80	kitchen	sun_aegoxogugdkwpmpj.tif	490429.990555	490430.249147	490430.930847	8.090865e-01	70	none	NaN	NaN
120	8	10	86	kitchen	sun_aggjlwcdjsjcaemh.tif	490431.700579	490431.959171	490432.640967	6.672878e-01	76	39	490433.526912	1
120	8	11	65	kitchen	sun_aamedkxepzlwuxes.tif	490434.303161	490434.561747	490435.243537	7.006522e-01	55	none	NaN	NaN
120	8	12	98	kitchen	sun_akchetnepxlcxhsu.tif	490436.013186	490436.271771	490436.953570	7.006522e-01	88	none	NaN	NaN
120	8	13	77	kitchen	sun_acxkpeoqbwcxfvip.tif	490437.723209	490437.981801	490438.663559	8.007454e-01	67	none	NaN	NaN
120	8	14	96	kitchen	sun_ajcbwwvdlsvjyzje.tif	490439.433235	490439.691823	490440.373577	8.257687e-01	86	none	NaN	NaN
120	8	15	84	kitchen	sun_aexklacwqwezaorf.tif	490441.143265	490441.401853	490442.083703	7.256755e-01	74	39	490443.375235	1
120	8	16	79	kitchen	sun_admlmbcdswaszruo.tif	490444.146237	490444.404827	490445.086510	7.506988e-01	69	none	NaN	NaN
120	8	17	89	kitchen	sun_agzzivivdpnawacl.tif	490445.856266	490446.114853	490446.796560	8.424509e-01	79	37	490448.190914	1
120	8	18	92	kitchen	sun_ahpczsiumwwocjkv.tif	490448.967679	490449.226270	490449.907992	8.424509e-01	82	none	NaN	NaN
120	8	19	93	kitchen	sun_ahspylgoovwmwvgk.tif	490450.677705	490450.936295	490451.618057	7.757221e-01	83	39	490452.807045	1
120	8	20	87	kitchen	sun_agorklincwxrdtga.tif	490453.580579	490453.839168	490454.520929	7.840632e-01	77	39	490455.527012	0
120	8	21	68	kitchen	sun_aaxxjlsuzvqlgylf.tif	490456.299937	490456.558529	490457.240315	6.839700e-01	58	none	NaN	NaN
120	8	22	76	kitchen	sun_acwjdupvyjsugpay.tif	490458.009972	490458.268560	490458.950308	6.589467e-01	66	none	NaN	NaN
120	8	23	67	kitchen	sun_aarfiyshqohlwkmo.tif	490459.719995	490459.978585	490460.660728	6.589467e-01	57	none	NaN	NaN
120	8	24	97	kitchen	sun_ajkqhtgcbgpcwrwn.tif	490461.430024	490461.688614	490462.370265	7.506988e-01	87	none	NaN	NaN
120	8	25	110	kitchen	sun_azmutvzbxypaceni.tif	490463.140047	490463.398640	490464.080430	7.173344e-01	100	none	NaN	NaN
120	8	26	105	kitchen	sun_avszsnwsbuqfgzbn.tif	490464.850074	490465.108667	490465.790337	7.840632e-01	95	none	NaN	NaN
120	8	27	70	kitchen	sun_abdxkyyxwfskuaqb.tif	490466.560103	490466.818696	490467.500393	8.507920e-01	60	none	NaN	NaN
120	8	28	69	kitchen	sun_abdenxonkemggwsq.tif	490468.270129	490468.528716	490469.210400	7.506988e-01	59	none	NaN	NaN
120	8	29	64	kitchen	sun_aadbddgrdsjugojn.tif	490469.980157	490470.238748	490470.920388	8.424509e-01	54	none	NaN	NaN
120	8	30	72	kitchen	sun_abpwyqmlzafvklqo.tif	490471.681845	490471.940432	490472.622130	7.673810e-01	62	none	NaN	NaN
120	8	31	71	kitchen	sun_abftihopvusyfakt.tif	490473.391870	490473.650460	490474.332245	7.590399e-01	61	none	NaN	NaN
120	8	32	108	kitchen	sun_aymvwlarqodbwuoc.tif	490475.101896	490475.360486	490476.042128	8.341098e-01	98	none	NaN	NaN
120	8	33	102	kitchen	sun_auaiucuqpdausiva.tif	490476.803581	490477.062167	490477.743955	7.340166e-01	92	none	NaN	NaN
120	8	34	75	kitchen	sun_acgtpgfybqjmzeyw.tif	490478.513609	490478.772198	490479.453929	7.924043e-01	65	none	NaN	NaN
120	8	35	100	kitchen	sun_amjjdeyrggfqgmom.tif	490480.223638	490480.482221	490481.164077	8.257687e-01	90	none	NaN	NaN
120	8	36	74	kitchen	sun_acfmftudsenhrfhy.tif	490481.933660	490482.192250	490482.874170	7.673810e-01	64	none	NaN	NaN
120	8	37	73	kitchen	sun_abrcnpqqhmjwekyf.tif	490483.643688	490483.902277	490484.584100	8.007454e-01	63	none	NaN	NaN
120	8	38	94	kitchen	sun_ahywdevtimnqcsln.tif	490485.353718	490485.612305	490486.294092	8.174276e-01	84	none	NaN	NaN
120	8	39	106	kitchen	sun_awcpdzzznmweyyhv.tif	490487.063743	490487.322330	490488.004157	6.923111e-01	96	none	NaN	NaN
120	8	40	103	kitchen	sun_aunzlwrbjumxhwdj.tif	490488.773770	490489.032359	490489.714186	7.173344e-01	93	none	NaN	NaN
120	8	41	99	kitchen	sun_akcjzhbbjlbogpdi.tif	490490.483797	490490.742381	490491.424264	7.423577e-01	89	none	NaN	NaN
120	8	42	63	kitchen	labelme_rykdqxenmhulbdn.tif	490492.193820	490492.452408	490493.134147	8.257687e-01	53	none	NaN	NaN
120	8	43	61	kitchen	labelme_brsyyvweiuaazfr.tif	490493.903852	490494.162433	490494.844084	7.506988e-01	51	none	NaN	NaN
120	8	44	88	kitchen	sun_agubuxuukhzyzpdp.tif	490495.613876	490495.872468	490496.554108	7.590399e-01	78	none	NaN	NaN
120	8	45	95	kitchen	sun_aixorpehvfykdynp.tif	490497.315561	490497.574150	490498.255931	7.089933e-01	85	none	NaN	NaN
120	8	46	62	kitchen	labelme_kxvouciolcpqplr.tif	490499.025582	490499.284173	490499.965976	7.840632e-01	52	none	NaN	NaN
120	8	47	78	kitchen	sun_adgqasybjyktddhj.tif	490500.735613	490500.994200	490501.675847	8.424509e-01	68	none	NaN	NaN
120	8	48	82	kitchen	sun_aenotlpyftoioydp.tif	490502.445642	490502.704227	490503.385976	6.756289e-01	72	37	490505.127207	1
120	8	49	90	kitchen	sun_ahdycvpopffkzzsu.tif	490505.899061	490506.157652	490506.839353	7.423577e-01	80	none	NaN	NaN
120	8	50	107	kitchen	sun_axyyrmzcupyhlivc.tif	490507.609087	490507.867680	490508.549405	6.839700e-01	97	none	NaN	NaN
120	8	51	109	kitchen	sun_aypmqwcualkenuoe.tif	490509.319117	490509.577700	490510.259470	7.757221e-01	99	none	NaN	NaN
120	8	52	75	kitchen	sun_acgtpgfybqjmzeyw.tif	490511.029141	490511.287732	490511.969545	7.173344e-01	65	none	NaN	NaN
120	8	53	76	kitchen	sun_acwjdupvyjsugpay.tif	490512.739172	490512.997756	490513.679606	6.756289e-01	66	none	NaN	NaN
120	8	54	66	kitchen	sun_aapllqyqlykszopd.tif	490514.449194	490514.707787	490515.389631	6.506056e-01	56	none	NaN	NaN
120	8	55	107	kitchen	sun_axyyrmzcupyhlivc.tif	490516.159225	490516.417810	490517.099574	7.006522e-01	97	37	490517.823020	1
120	8	56	64	kitchen	sun_aadbddgrdsjugojn.tif	490518.594966	490518.853557	490519.535346	8.257687e-01	54	39	490520.966892	0
120	8	57	101	kitchen	sun_aqeaevwwwjoqhzvl.tif	490521.739748	490521.998337	490522.680089	6.923111e-01	91	none	NaN	NaN
120	8	58	79	kitchen	sun_admlmbcdswaszruo.tif	490523.449779	490523.708364	490524.390066	7.256755e-01	69	none	NaN	NaN
120	8	59	61	kitchen	labelme_brsyyvweiuaazfr.tif	490525.159802	490525.418392	490526.100058	7.590399e-01	51	none	NaN	NaN
120	8	60	92	kitchen	sun_ahpczsiumwwocjkv.tif	490526.861486	490527.120076	490527.801738	7.590399e-01	82	none	NaN	NaN
120	8	61	63	kitchen	labelme_rykdqxenmhulbdn.tif	490528.563176	490528.821766	490529.503563	7.340166e-01	53	none	NaN	NaN
120	8	62	93	kitchen	sun_ahspylgoovwmwvgk.tif	490530.273199	490530.531790	490531.213456	7.256755e-01	83	none	NaN	NaN
120	8	63	106	kitchen	sun_awcpdzzznmweyyhv.tif	490531.974885	490532.233473	490532.915265	6.923111e-01	96	none	NaN	NaN
120	8	64	83	kitchen	sun_aeqdocilnnpuvuhx.tif	490533.684910	490533.943505	490534.625358	6.839700e-01	73	none	NaN	NaN
120	8	65	70	kitchen	sun_abdxkyyxwfskuaqb.tif	490535.394939	490535.653529	490536.335261	7.006522e-01	60	none	NaN	NaN
120	8	66	84	kitchen	sun_aexklacwqwezaorf.tif	490537.096627	490537.355210	490538.036984	7.757221e-01	74	none	NaN	NaN
120	8	67	78	kitchen	sun_adgqasybjyktddhj.tif	490538.806654	490539.065238	490539.747067	7.924043e-01	68	none	NaN	NaN
120	8	68	77	kitchen	sun_acxkpeoqbwcxfvip.tif	490540.516678	490540.775264	490541.456951	7.840632e-01	67	none	NaN	NaN
120	8	69	74	kitchen	sun_acfmftudsenhrfhy.tif	490542.226704	490542.485296	490543.167075	8.090865e-01	64	none	NaN	NaN
120	8	70	94	kitchen	sun_ahywdevtimnqcsln.tif	490543.936730	490544.195323	490544.876981	7.089933e-01	84	39	490546.295179	1
120	8	71	95	kitchen	sun_aixorpehvfykdynp.tif	490547.073168	490547.331759	490548.013487	6.672878e-01	85	39	490548.999153	1
120	8	72	73	kitchen	sun_abrcnpqqhmjwekyf.tif	490549.775846	490550.034434	490550.716213	8.007454e-01	63	39	490552.151225	0
120	8	73	88	kitchen	sun_agubuxuukhzyzpdp.tif	490552.928970	490553.187556	490553.869296	8.174276e-01	78	none	NaN	NaN
120	8	74	98	kitchen	sun_akchetnepxlcxhsu.tif	490554.638998	490554.897588	490555.579339	8.007454e-01	88	none	NaN	NaN
120	8	75	80	kitchen	sun_aegoxogugdkwpmpj.tif	490556.349020	490556.607610	490557.289322	6.672878e-01	70	39	490557.975185	1
120	8	76	65	kitchen	sun_aamedkxepzlwuxes.tif	490558.751400	490559.009991	490559.691752	7.673810e-01	55	none	NaN	NaN
120	8	77	103	kitchen	sun_aunzlwrbjumxhwdj.tif	490560.461429	490560.720019	490561.401860	7.423577e-01	93	none	NaN	NaN
120	8	78	86	kitchen	sun_aggjlwcdjsjcaemh.tif	490562.171457	490562.430045	490563.111746	8.090865e-01	76	none	NaN	NaN
120	8	79	71	kitchen	sun_abftihopvusyfakt.tif	490563.881483	490564.140073	490564.821722	7.423577e-01	61	none	NaN	NaN
120	8	80	81	kitchen	sun_aehawpgmrlhlvcow.tif	490565.583166	490565.841755	490566.523450	8.341098e-01	71	none	NaN	NaN
120	8	81	96	kitchen	sun_ajcbwwvdlsvjyzje.tif	490567.293194	490567.551785	490568.233569	6.589467e-01	86	none	NaN	NaN
120	8	82	102	kitchen	sun_auaiucuqpdausiva.tif	490569.003222	490569.261810	490569.943666	6.923111e-01	92	none	NaN	NaN
120	8	83	62	kitchen	labelme_kxvouciolcpqplr.tif	490570.713249	490570.971842	490571.653554	7.340166e-01	52	none	NaN	NaN
120	8	84	108	kitchen	sun_aymvwlarqodbwuoc.tif	490572.423279	490572.681867	490573.363615	6.589467e-01	98	none	NaN	NaN
120	8	85	72	kitchen	sun_abpwyqmlzafvklqo.tif	490574.133303	490574.391894	490575.073536	8.174276e-01	62	none	NaN	NaN
120	8	86	87	kitchen	sun_agorklincwxrdtga.tif	490575.843330	490576.101915	490576.783678	7.340166e-01	77	none	NaN	NaN
120	8	87	90	kitchen	sun_ahdycvpopffkzzsu.tif	490577.553355	490577.811946	490578.493722	7.924043e-01	80	none	NaN	NaN
120	8	88	82	kitchen	sun_aenotlpyftoioydp.tif	490579.263381	490579.521972	490580.203816	6.839700e-01	72	none	NaN	NaN
120	8	89	100	kitchen	sun_amjjdeyrggfqgmom.tif	490580.973409	490581.231994	490581.913671	7.173344e-01	90	39	490582.678996	1
120	8	90	67	kitchen	sun_aarfiyshqohlwkmo.tif	490583.450864	490583.709451	490584.391104	7.089933e-01	57	none	NaN	NaN
120	8	91	104	kitchen	sun_auticobqsbwgoppi.tif	490585.160888	490585.419481	490586.101336	8.090865e-01	94	none	NaN	NaN
120	8	92	110	kitchen	sun_azmutvzbxypaceni.tif	490586.870913	490587.129504	490587.811148	7.673810e-01	100	none	NaN	NaN
120	8	93	105	kitchen	sun_avszsnwsbuqfgzbn.tif	490588.572599	490588.831190	490589.512991	8.174276e-01	95	none	NaN	NaN
120	8	94	97	kitchen	sun_ajkqhtgcbgpcwrwn.tif	490590.282629	490590.541217	490591.222893	8.341098e-01	87	none	NaN	NaN
120	8	95	85	kitchen	sun_afuyedyxivkhecmu.tif	490591.992653	490592.251244	490592.933028	8.341098e-01	75	none	NaN	NaN
120	8	96	89	kitchen	sun_agzzivivdpnawacl.tif	490593.702684	490593.961269	490594.643020	7.924043e-01	79	none	NaN	NaN
120	8	97	91	kitchen	sun_ahljzhgcdpomplvg.tif	490595.412711	490595.671294	490596.352947	6.672878e-01	81	none	NaN	NaN
120	8	98	99	kitchen	sun_akcjzhbbjlbogpdi.tif	490597.122734	490597.381325	490598.063052	6.506056e-01	89	none	NaN	NaN
120	8	99	68	kitchen	sun_aaxxjlsuzvqlgylf.tif	490598.832762	490599.091353	490599.773140	6.756289e-01	58	none	NaN	NaN
120	8	100	69	kitchen	sun_abdenxonkemggwsq.tif	490600.542787	490600.801378	490601.483171	6.506056e-01	59	none	NaN	NaN
120	9	1	11	bathroom	labelme_sfxiulhjbhlyiyt.tif	490617.893310	490618.151895	490618.800333	7.757221e-01	1	none	NaN	NaN
120	9	2	24	bathroom	sun_agrwbmhcpmfuwmsg.tif	490619.569966	490619.828556	490620.476858	8.507920e-01	14	none	NaN	NaN
120	9	3	60	bathroom	sun_azqyogdvyhahyram.tif	490621.246623	490621.505215	490622.153686	7.006522e-01	50	none	NaN	NaN
120	9	4	19	bathroom	sun_aclfzgynxzxlbepz.tif	490622.923284	490623.181880	490623.830342	7.924043e-01	9	none	NaN	NaN
120	9	5	14	bathroom	sun_abapwbhyhkfixyex.tif	490624.599945	490624.858541	490625.506884	8.174276e-01	4	none	NaN	NaN
120	9	6	15	bathroom	sun_abjtwfukuwddzted.tif	490626.276608	490626.535199	490627.183571	6.923111e-01	5	39	490628.974989	1
120	9	7	21	bathroom	sun_aggnnqpdorgxpvce.tif	490629.746710	490630.005299	490630.653775	7.506988e-01	11	none	NaN	NaN
120	9	8	38	bathroom	sun_anhioqovhscjqqwb.tif	490631.423371	490631.681959	490632.330294	6.506056e-01	28	none	NaN	NaN
120	9	9	44	bathroom	sun_apkruvsevgegsdwp.tif	490633.100034	490633.358621	490634.007102	6.589467e-01	34	none	NaN	NaN
120	9	10	56	bathroom	sun_awnqiikzaispgmwo.tif	490634.776687	490635.035282	490635.683719	6.589467e-01	46	none	NaN	NaN
120	9	11	16	bathroom	sun_acduarbnmmoglmiv.tif	490636.453353	490636.711942	490637.360436	8.257687e-01	6	none	NaN	NaN
120	9	12	45	bathroom	sun_apkxzenqapsujocq.tif	490638.130014	490638.388605	490639.037086	8.007454e-01	35	none	NaN	NaN
120	9	13	18	bathroom	sun_acgyywnybuveqsro.tif	490639.806675	490640.065261	490640.713581	8.424509e-01	8	none	NaN	NaN
120	9	14	20	bathroom	sun_afcoljnjfoxjtgja.tif	490641.483337	490641.741928	490642.391047	7.757221e-01	10	39	490643.311188	0
120	9	15	49	bathroom	sun_asfwthctfqerjvxr.tif	490644.085904	490644.344495	490644.992992	8.090865e-01	39	none	NaN	NaN
120	9	16	31	bathroom	sun_akiytfaagpdsphgz.tif	490645.762573	490646.021162	490646.669474	7.590399e-01	21	none	NaN	NaN
120	9	17	17	bathroom	sun_acegryoqftbzowsg.tif	490647.439230	490647.697824	490648.346147	7.423577e-01	7	none	NaN	NaN
120	9	18	54	bathroom	sun_auzqhkafidnkrwmo.tif	490649.115892	490649.374484	490650.022853	8.507920e-01	44	none	NaN	NaN
120	9	19	50	bathroom	sun_aspsyogrekjtfozg.tif	490650.792554	490651.051141	490651.699499	8.174276e-01	40	none	NaN	NaN
120	9	20	34	bathroom	sun_alkosphxlxwjwgjd.tif	490652.469214	490652.727804	490653.376135	7.340166e-01	24	37	490654.511234	1
120	9	21	53	bathroom	sun_ausgutylgojavyoq.tif	490655.288675	490655.547260	490656.195759	6.839700e-01	43	none	NaN	NaN
120	9	22	13	bathroom	sun_aavhrsfjbserjtht.tif	490656.965332	490657.223926	490657.872266	6.672878e-01	3	none	NaN	NaN
120	9	23	52	bathroom	sun_aunuadmjocsddsrl.tif	490658.641997	490658.900582	490659.549016	6.506056e-01	42	none	NaN	NaN
120	9	24	12	bathroom	sun_aapitsgbtktqubfy.tif	490660.318651	490660.577243	490661.225538	7.590399e-01	2	none	NaN	NaN
120	9	25	39	bathroom	sun_anryaplzeujmzfkd.tif	490661.995316	490662.253903	490662.902378	7.340166e-01	29	none	NaN	NaN
120	9	26	29	bathroom	sun_ahqjwnzgolcaoidx.tif	490663.671975	490663.930561	490664.579062	7.089933e-01	19	none	NaN	NaN
120	9	27	26	bathroom	sun_ahaulkltgpkeeemi.tif	490665.348638	490665.607217	490666.255703	6.672878e-01	16	37	490667.239028	1
120	9	28	51	bathroom	sun_atstyziqcmkahyxk.tif	490668.009604	490668.268193	490668.916494	7.089933e-01	41	none	NaN	NaN
120	9	29	41	bathroom	sun_aoybiabnpadelefl.tif	490669.686267	490669.944852	490670.593172	7.840632e-01	31	none	NaN	NaN
120	9	30	28	bathroom	sun_ahijqszoswveeyji.tif	490671.362928	490671.621512	490672.269829	7.423577e-01	18	none	NaN	NaN
120	9	31	57	bathroom	sun_axldvoqbuvuggfmq.tif	490673.031245	490673.289831	490673.938175	7.924043e-01	47	none	NaN	NaN
120	9	32	32	bathroom	sun_aleqenyvunhactkl.tif	490674.699566	490674.958151	490675.606647	6.923111e-01	22	39	490676.319187	1
120	9	33	25	bathroom	sun_agyqfjcfkdcydepw.tif	490677.093602	490677.352191	490678.000566	8.007454e-01	15	none	NaN	NaN
120	9	34	30	bathroom	sun_ajlawzvmubibwbpy.tif	490678.770262	490679.028853	490679.677188	8.257687e-01	20	none	NaN	NaN
120	9	35	58	bathroom	sun_axxbkopsgyouuebh.tif	490680.446918	490680.705503	490681.353823	7.506988e-01	48	none	NaN	NaN
120	9	36	48	bathroom	sun_aqrpegblszgcoujh.tif	490682.115242	490682.373826	490683.022150	7.673810e-01	38	none	NaN	NaN
120	9	37	36	bathroom	sun_ambriybtogmepttm.tif	490683.791898	490684.050486	490684.698944	8.257687e-01	26	none	NaN	NaN
120	9	38	33	bathroom	sun_aljolscmmzydegqp.tif	490685.468559	490685.727153	490686.375643	7.673810e-01	23	none	NaN	NaN
120	9	39	42	bathroom	sun_apeeialkgkuxddgh.tif	490687.145216	490687.403809	490688.052211	7.840632e-01	32	none	NaN	NaN
120	9	40	55	bathroom	sun_avhrdrntsqrjzccq.tif	490688.821884	490689.080467	490689.728768	6.756289e-01	45	37	490690.695189	1
120	9	41	46	bathroom	sun_apmqjbnwghzuhhzh.tif	490691.466166	490691.724761	490692.373212	6.839700e-01	36	none	NaN	NaN
120	9	42	22	bathroom	sun_agguqiubmwhqqunb.tif	490693.142826	490693.401420	490694.049812	6.589467e-01	12	none	NaN	NaN
120	9	43	27	bathroom	sun_ahcvzmoyaycdoftf.tif	490694.819509	490695.078079	490695.726428	6.756289e-01	17	none	NaN	NaN
120	9	44	47	bathroom	sun_apynckhmoftszqoq.tif	490696.496150	490696.754737	490697.403056	6.839700e-01	37	none	NaN	NaN
120	9	45	59	bathroom	sun_axyrejkiiaqiurjk.tif	490698.172805	490698.431396	490699.079807	7.423577e-01	49	none	NaN	NaN
120	9	46	35	bathroom	sun_alotolagknyrgtsk.tif	490699.849470	490700.108060	490700.756447	6.672878e-01	25	37	490701.463157	1
120	9	47	40	bathroom	sun_aofnryafpsjimzsb.tif	490702.235168	490702.493756	490703.142065	7.089933e-01	30	37	490704.126848	0
120	9	48	23	bathroom	sun_aghyqhbptboemmoq.tif	490704.904473	490705.163064	490705.811442	7.840632e-01	13	none	NaN	NaN
120	9	49	43	bathroom	sun_apjevzvycyhuqghb.tif	490706.581135	490706.839727	490707.488139	6.672878e-01	33	none	NaN	NaN
120	9	50	37	bathroom	sun_amzlamotzwfkwjco.tif	490708.257796	490708.516382	490709.164811	8.090865e-01	27	none	NaN	NaN
