subject	block	trial	texture	category	image	trialOnset	itiOnset	trialEnd	iti	EEGtrigger	responseKey	responseTime	accuracy
110	1	1	13	bathroom	sun_aavhrsfjbserjtht.tif	610912.794119	610913.052704	610913.792925	7.507226e-01	3	none	NaN	NaN
110	1	2	49	bathroom	sun_asfwthctfqerjvxr.tif	610914.562537	610914.821125	610915.561247	8.424776e-01	39	none	NaN	NaN
110	1	3	25	bathroom	sun_agyqfjcfkdcydepw.tif	610916.330956	610916.589545	610917.329771	6.589676e-01	15	39	610918.429334	1
110	1	4	38	bathroom	sun_anhioqovhscjqqwb.tif	610919.208808	610919.467396	610920.207532	7.840880e-01	28	none	NaN	NaN
110	1	5	37	bathroom	sun_amzlamotzwfkwjco.tif	610920.977222	610921.235816	610921.975951	7.173571e-01	27	none	NaN	NaN
110	1	6	16	bathroom	sun_acduarbnmmoglmiv.tif	610922.745649	610923.004239	610923.744463	6.923330e-01	6	none	NaN	NaN
110	1	7	41	bathroom	sun_aoybiabnpadelefl.tif	610924.514062	610924.772657	610925.512874	6.923330e-01	31	39	610926.493457	1
110	1	8	55	bathroom	sun_avhrdrntsqrjzccq.tif	610927.266793	610927.525384	610928.265539	6.923330e-01	45	none	NaN	NaN
110	1	9	60	bathroom	sun_azqyogdvyhahyram.tif	610929.035214	610929.293801	610930.033915	7.423812e-01	50	37	610930.813569	1
110	1	10	29	bathroom	sun_ahqjwnzgolcaoidx.tif	610931.587741	610931.846331	610932.586516	7.340399e-01	19	none	NaN	NaN
110	1	11	15	bathroom	sun_abjtwfukuwddzted.tif	610933.356159	610933.614748	610934.354930	8.341362e-01	5	37	610934.997670	1
110	1	12	39	bathroom	sun_anryaplzeujmzfkd.tif	610935.775223	610936.033817	610936.774009	6.756503e-01	29	none	NaN	NaN
110	1	13	17	bathroom	sun_acegryoqftbzowsg.tif	610937.543644	610937.802235	610938.542392	8.091121e-01	7	none	NaN	NaN
110	1	14	30	bathroom	sun_ajlawzvmubibwbpy.tif	610939.312064	610939.570652	610940.310839	8.174535e-01	20	none	NaN	NaN
110	1	15	23	bathroom	sun_aghyqhbptboemmoq.tif	610941.080482	610941.339070	610942.079131	7.840880e-01	13	none	NaN	NaN
110	1	16	53	bathroom	sun_ausgutylgojavyoq.tif	610942.840518	610943.099151	610943.839356	7.507226e-01	43	none	NaN	NaN
110	1	17	59	bathroom	sun_axyrejkiiaqiurjk.tif	610944.608976	610944.867566	610945.607697	7.423812e-01	49	none	NaN	NaN
110	1	18	58	bathroom	sun_axxbkopsgyouuebh.tif	610946.377395	610946.635989	610947.376112	7.340399e-01	48	none	NaN	NaN
110	1	19	14	bathroom	sun_abapwbhyhkfixyex.tif	610948.145817	610948.404408	610949.144492	7.090158e-01	4	none	NaN	NaN
110	1	20	33	bathroom	sun_aljolscmmzydegqp.tif	610949.914233	610950.172825	610950.913043	6.923330e-01	23	none	NaN	NaN
110	1	21	46	bathroom	sun_apmqjbnwghzuhhzh.tif	610951.682653	610951.941241	610952.681313	7.340399e-01	36	39	610953.421278	1
110	1	22	18	bathroom	sun_acgyywnybuveqsro.tif	610954.193477	610954.452066	610955.192277	6.756503e-01	8	none	NaN	NaN
110	1	23	19	bathroom	sun_aclfzgynxzxlbepz.tif	610955.961896	610956.220483	610956.960607	7.757467e-01	9	none	NaN	NaN
110	1	24	11	bathroom	labelme_sfxiulhjbhlyiyt.tif	610957.730312	610957.988907	610958.729169	6.673090e-01	1	39	610960.101796	1
110	1	25	27	bathroom	sun_ahcvzmoyaycdoftf.tif	610960.875096	610961.133685	610961.873847	8.257948e-01	17	none	NaN	NaN
110	1	26	21	bathroom	sun_aggnnqpdorgxpvce.tif	610962.643516	610962.902105	610963.642213	7.590639e-01	11	none	NaN	NaN
110	1	27	42	bathroom	sun_apeeialkgkuxddgh.tif	610964.411934	610964.670524	610965.410744	7.590639e-01	32	none	NaN	NaN
110	1	28	56	bathroom	sun_awnqiikzaispgmwo.tif	610966.180356	610966.438942	610967.179034	8.174535e-01	46	none	NaN	NaN
110	1	29	44	bathroom	sun_apkruvsevgegsdwp.tif	610967.948773	610968.207365	610968.947543	7.423812e-01	34	none	NaN	NaN
110	1	30	20	bathroom	sun_afcoljnjfoxjtgja.tif	610969.717193	610969.975783	610970.716012	7.173571e-01	10	none	NaN	NaN
110	1	31	28	bathroom	sun_ahijqszoswveeyji.tif	610971.485610	610971.744205	610972.484361	8.424776e-01	18	none	NaN	NaN
110	1	32	26	bathroom	sun_ahaulkltgpkeeemi.tif	610973.254032	610973.512617	610974.252882	7.674053e-01	16	none	NaN	NaN
110	1	33	22	bathroom	sun_agguqiubmwhqqunb.tif	610975.022449	610975.281037	610976.021279	6.923330e-01	12	none	NaN	NaN
110	1	34	47	bathroom	sun_apynckhmoftszqoq.tif	610976.790869	610977.049456	610977.789731	7.590639e-01	37	none	NaN	NaN
110	1	35	45	bathroom	sun_apkxzenqapsujocq.tif	610978.559286	610978.817875	610979.557947	8.174535e-01	35	none	NaN	NaN
110	1	36	34	bathroom	sun_alkosphxlxwjwgjd.tif	610980.327705	610980.586296	610981.326498	8.341362e-01	24	none	NaN	NaN
110	1	37	12	bathroom	sun_aapitsgbtktqubfy.tif	610982.096127	610982.354713	610983.094914	8.091121e-01	2	none	NaN	NaN
110	1	38	52	bathroom	sun_aunuadmjocsddsrl.tif	610983.864547	610984.123130	610984.863223	7.090158e-01	42	none	NaN	NaN
110	1	39	50	bathroom	sun_aspsyogrekjtfozg.tif	610985.632963	610985.891548	610986.631681	7.924294e-01	40	none	NaN	NaN
110	1	40	54	bathroom	sun_auzqhkafidnkrwmo.tif	610987.401383	610987.659971	610988.400178	6.506262e-01	44	none	NaN	NaN
110	1	41	31	bathroom	sun_akiytfaagpdsphgz.tif	610989.169801	610989.428389	610990.168633	6.589676e-01	21	39	610991.389429	1
110	1	42	48	bathroom	sun_aqrpegblszgcoujh.tif	610992.164439	610992.423027	610993.163197	8.091121e-01	38	none	NaN	NaN
110	1	43	35	bathroom	sun_alotolagknyrgtsk.tif	610993.932855	610994.191445	610994.931649	8.007708e-01	25	none	NaN	NaN
110	1	44	24	bathroom	sun_agrwbmhcpmfuwmsg.tif	610995.701270	610995.959860	610996.699919	7.256985e-01	14	none	NaN	NaN
110	1	45	40	bathroom	sun_aofnryafpsjimzsb.tif	610997.469692	610997.728281	610998.468554	7.840880e-01	30	none	NaN	NaN
110	1	46	36	bathroom	sun_ambriybtogmepttm.tif	610999.238110	610999.496702	611000.236950	7.757467e-01	26	none	NaN	NaN
110	1	47	57	bathroom	sun_axldvoqbuvuggfmq.tif	611001.006529	611001.265115	611002.005260	8.257948e-01	47	none	NaN	NaN
110	1	48	43	bathroom	sun_apjevzvycyhuqghb.tif	611002.774950	611003.033541	611003.773777	6.506262e-01	33	none	NaN	NaN
110	1	49	32	bathroom	sun_aleqenyvunhactkl.tif	611004.543368	611004.801955	611005.542171	7.006744e-01	22	none	NaN	NaN
110	1	50	51	bathroom	sun_atstyziqcmkahyxk.tif	611006.311791	611006.570373	611007.310508	8.007708e-01	41	none	NaN	NaN
110	1	51	59	bathroom	sun_axyrejkiiaqiurjk.tif	611008.080207	611008.338798	611009.078975	7.006744e-01	49	none	NaN	NaN
110	1	52	11	bathroom	labelme_sfxiulhjbhlyiyt.tif	611009.848624	611010.107211	611010.847293	7.340399e-01	1	none	NaN	NaN
110	1	53	25	bathroom	sun_agyqfjcfkdcydepw.tif	611011.617042	611011.875629	611012.615880	7.507226e-01	15	none	NaN	NaN
110	1	54	16	bathroom	sun_acduarbnmmoglmiv.tif	611013.385462	611013.644051	611014.384146	7.173571e-01	6	none	NaN	NaN
110	1	55	21	bathroom	sun_aggnnqpdorgxpvce.tif	611015.153882	611015.412468	611016.152601	7.590639e-01	11	none	NaN	NaN
110	1	56	51	bathroom	sun_atstyziqcmkahyxk.tif	611016.922301	611017.180885	611017.921117	7.924294e-01	41	none	NaN	NaN
110	1	57	32	bathroom	sun_aleqenyvunhactkl.tif	611018.690722	611018.949309	611019.689410	7.924294e-01	22	none	NaN	NaN
110	1	58	33	bathroom	sun_aljolscmmzydegqp.tif	611020.459130	611020.717727	611021.457890	7.674053e-01	23	none	NaN	NaN
110	1	59	18	bathroom	sun_acgyywnybuveqsro.tif	611022.227559	611022.486143	611023.226399	7.090158e-01	8	none	NaN	NaN
110	1	60	36	bathroom	sun_ambriybtogmepttm.tif	611023.995975	611024.254568	611024.994767	7.840880e-01	26	none	NaN	NaN
110	1	61	13	bathroom	sun_aavhrsfjbserjtht.tif	611025.764392	611026.022983	611026.763213	8.508189e-01	3	none	NaN	NaN
110	1	62	56	bathroom	sun_awnqiikzaispgmwo.tif	611027.532816	611027.791403	611028.531617	7.757467e-01	46	39	611030.389743	1
110	1	63	14	bathroom	sun_abapwbhyhkfixyex.tif	611031.161412	611031.419999	611032.160191	6.589676e-01	4	none	NaN	NaN
110	1	64	45	bathroom	sun_apkxzenqapsujocq.tif	611032.929825	611033.188416	611033.928762	8.091121e-01	35	none	NaN	NaN
110	1	65	38	bathroom	sun_anhioqovhscjqqwb.tif	611034.698248	611034.956835	611035.697086	8.257948e-01	28	37	611036.501612	1
110	1	66	44	bathroom	sun_apkruvsevgegsdwp.tif	611037.275799	611037.534388	611038.274625	8.007708e-01	34	37	611039.021538	1
110	1	67	35	bathroom	sun_alotolagknyrgtsk.tif	611039.794965	611040.053550	611040.793708	6.673090e-01	25	none	NaN	NaN
110	1	68	55	bathroom	sun_avhrdrntsqrjzccq.tif	611041.563380	611041.821965	611042.562053	6.756503e-01	45	39	611043.621715	1
110	1	69	22	bathroom	sun_agguqiubmwhqqunb.tif	611044.399522	611044.658114	611045.398355	6.839917e-01	12	none	NaN	NaN
110	1	70	24	bathroom	sun_agrwbmhcpmfuwmsg.tif	611046.167942	611046.426534	611047.166787	7.423812e-01	14	none	NaN	NaN
110	1	71	47	bathroom	sun_apynckhmoftszqoq.tif	611047.936361	611048.194950	611048.935046	8.341362e-01	37	none	NaN	NaN
110	1	72	53	bathroom	sun_ausgutylgojavyoq.tif	611049.704783	611049.963374	611050.703534	7.590639e-01	43	none	NaN	NaN
110	1	73	15	bathroom	sun_abjtwfukuwddzted.tif	611051.473198	611051.731793	611052.472028	8.007708e-01	5	none	NaN	NaN
110	1	74	28	bathroom	sun_ahijqszoswveeyji.tif	611053.241620	611053.500210	611054.240435	7.256985e-01	18	none	NaN	NaN
110	1	75	26	bathroom	sun_ahaulkltgpkeeemi.tif	611055.010036	611055.268625	611056.008709	8.174535e-01	16	37	611057.269697	1
110	1	76	58	bathroom	sun_axxbkopsgyouuebh.tif	611058.046379	611058.304971	611059.045192	6.839917e-01	48	none	NaN	NaN
110	1	77	17	bathroom	sun_acegryoqftbzowsg.tif	611059.814797	611060.073388	611060.813564	6.839917e-01	7	37	611061.957601	1
110	1	78	54	bathroom	sun_auzqhkafidnkrwmo.tif	611062.734360	611062.992947	611063.733320	8.341362e-01	44	none	NaN	NaN
110	1	79	30	bathroom	sun_ajlawzvmubibwbpy.tif	611064.502777	611064.761365	611065.501520	7.173571e-01	20	none	NaN	NaN
110	1	80	19	bathroom	sun_aclfzgynxzxlbepz.tif	611066.271197	611066.529788	611067.269999	8.257948e-01	9	none	NaN	NaN
110	1	81	60	bathroom	sun_azqyogdvyhahyram.tif	611068.039612	611068.298209	611069.038357	7.256985e-01	50	none	NaN	NaN
110	1	82	50	bathroom	sun_aspsyogrekjtfozg.tif	611069.808036	611070.066624	611070.806782	7.757467e-01	40	none	NaN	NaN
110	1	83	42	bathroom	sun_apeeialkgkuxddgh.tif	611071.576449	611071.835042	611072.575227	7.006744e-01	32	none	NaN	NaN
110	1	84	49	bathroom	sun_asfwthctfqerjvxr.tif	611073.344873	611073.603465	611074.343637	7.674053e-01	39	none	NaN	NaN
110	1	85	27	bathroom	sun_ahcvzmoyaycdoftf.tif	611075.113290	611075.371880	611076.111993	7.006744e-01	17	none	NaN	NaN
110	1	86	12	bathroom	sun_aapitsgbtktqubfy.tif	611076.881708	611077.140299	611077.880549	7.256985e-01	2	none	NaN	NaN
110	1	87	23	bathroom	sun_aghyqhbptboemmoq.tif	611078.650128	611078.908724	611079.648957	6.506262e-01	13	39	611080.893620	1
110	1	88	20	bathroom	sun_afcoljnjfoxjtgja.tif	611081.669786	611081.928380	611082.668442	8.424776e-01	10	none	NaN	NaN
110	1	89	40	bathroom	sun_aofnryafpsjimzsb.tif	611083.438202	611083.696795	611084.436862	6.589676e-01	30	none	NaN	NaN
110	1	90	39	bathroom	sun_anryaplzeujmzfkd.tif	611085.206624	611085.465214	611086.205454	6.839917e-01	29	none	NaN	NaN
110	1	91	43	bathroom	sun_apjevzvycyhuqghb.tif	611086.975042	611087.233629	611087.973899	8.257948e-01	33	none	NaN	NaN
110	1	92	34	bathroom	sun_alkosphxlxwjwgjd.tif	611088.743461	611089.002053	611089.742132	6.673090e-01	24	none	NaN	NaN
110	1	93	41	bathroom	sun_aoybiabnpadelefl.tif	611090.511879	611090.770471	611091.510578	8.424776e-01	31	none	NaN	NaN
110	1	94	46	bathroom	sun_apmqjbnwghzuhhzh.tif	611092.271956	611092.530549	611093.270738	6.756503e-01	36	none	NaN	NaN
110	1	95	57	bathroom	sun_axldvoqbuvuggfmq.tif	611094.040376	611094.298968	611095.039030	8.508189e-01	47	none	NaN	NaN
110	1	96	31	bathroom	sun_akiytfaagpdsphgz.tif	611095.808790	611096.067385	611096.807504	7.507226e-01	21	37	611097.805669	1
110	1	97	37	bathroom	sun_amzlamotzwfkwjco.tif	611098.578201	611098.836795	611099.576894	7.090158e-01	27	none	NaN	NaN
110	1	98	29	bathroom	sun_ahqjwnzgolcaoidx.tif	611100.346625	611100.605217	611101.345465	7.674053e-01	19	none	NaN	NaN
110	1	99	52	bathroom	sun_aunuadmjocsddsrl.tif	611102.115043	611102.373632	611103.113783	7.924294e-01	42	none	NaN	NaN
110	1	100	48	bathroom	sun_aqrpegblszgcoujh.tif	611103.883463	611104.142050	611104.882332	6.673090e-01	38	none	NaN	NaN
110	2	1	62	kitchen	labelme_kxvouciolcpqplr.tif	611112.458625	611112.717220	611113.407302	8.257948e-01	52	none	NaN	NaN
110	2	2	82	kitchen	sun_aenotlpyftoioydp.tif	611114.176995	611114.435583	611115.125710	7.006744e-01	72	none	NaN	NaN
110	2	3	80	kitchen	sun_aegoxogugdkwpmpj.tif	611115.895361	611116.153955	611116.844126	8.257948e-01	70	none	NaN	NaN
110	2	4	84	kitchen	sun_aexklacwqwezaorf.tif	611117.613731	611117.872323	611118.562387	7.507226e-01	74	none	NaN	NaN
110	2	5	88	kitchen	sun_agubuxuukhzyzpdp.tif	611119.332105	611119.590690	611120.280873	7.423812e-01	78	none	NaN	NaN
110	2	6	85	kitchen	sun_afuyedyxivkhecmu.tif	611121.050472	611121.309059	611121.999104	7.924294e-01	75	37	611122.789638	1
110	2	7	73	kitchen	sun_abrcnpqqhmjwekyf.tif	611123.561297	611123.819879	611124.510055	7.590639e-01	63	none	NaN	NaN
110	2	8	99	kitchen	sun_akcjzhbbjlbogpdi.tif	611125.279660	611125.538255	611126.228361	7.256985e-01	89	none	NaN	NaN
110	2	9	75	kitchen	sun_acgtpgfybqjmzeyw.tif	611126.998031	611127.256623	611127.946637	7.590639e-01	65	none	NaN	NaN
110	2	10	92	kitchen	sun_ahpczsiumwwocjkv.tif	611128.716397	611128.974993	611129.665017	7.590639e-01	82	none	NaN	NaN
110	2	11	67	kitchen	sun_aarfiyshqohlwkmo.tif	611130.434770	611130.693358	611131.383465	7.507226e-01	57	37	611131.933465	1
110	2	12	89	kitchen	sun_agzzivivdpnawacl.tif	611132.712023	611132.970617	611133.660672	7.090158e-01	79	none	NaN	NaN
110	2	13	87	kitchen	sun_agorklincwxrdtga.tif	611134.430393	611134.688988	611135.379112	8.341362e-01	77	none	NaN	NaN
110	2	14	70	kitchen	sun_abdxkyyxwfskuaqb.tif	611136.148762	611136.407350	611137.097459	7.006744e-01	60	none	NaN	NaN
110	2	15	69	kitchen	sun_abdenxonkemggwsq.tif	611137.867137	611138.125722	611138.815780	6.506262e-01	59	none	NaN	NaN
110	2	16	66	kitchen	sun_aapllqyqlykszopd.tif	611139.585506	611139.844093	611140.534179	7.340399e-01	56	37	611141.365475	0
110	2	17	104	kitchen	sun_auticobqsbwgoppi.tif	611142.138029	611142.396620	611143.086749	8.007708e-01	94	none	NaN	NaN
110	2	18	90	kitchen	sun_ahdycvpopffkzzsu.tif	611143.856397	611144.114993	611144.805149	6.839917e-01	80	none	NaN	NaN
110	2	19	96	kitchen	sun_ajcbwwvdlsvjyzje.tif	611145.574770	611145.833357	611146.523473	6.923330e-01	86	none	NaN	NaN
110	2	20	65	kitchen	sun_aamedkxepzlwuxes.tif	611147.293138	611147.551730	611148.241862	7.090158e-01	55	none	NaN	NaN
110	2	21	106	kitchen	sun_awcpdzzznmweyyhv.tif	611149.011508	611149.270094	611149.960135	7.674053e-01	96	none	NaN	NaN
110	2	22	83	kitchen	sun_aeqdocilnnpuvuhx.tif	611150.729875	611150.988467	611151.678496	8.424776e-01	73	none	NaN	NaN
110	2	23	64	kitchen	sun_aadbddgrdsjugojn.tif	611152.448245	611152.706834	611153.396853	7.840880e-01	54	none	NaN	NaN
110	2	24	61	kitchen	labelme_brsyyvweiuaazfr.tif	611154.166617	611154.425206	611155.115249	7.173571e-01	51	none	NaN	NaN
110	2	25	107	kitchen	sun_axyyrmzcupyhlivc.tif	611155.885012	611156.143573	611156.833714	7.340399e-01	97	none	NaN	NaN
110	2	26	91	kitchen	sun_ahljzhgcdpomplvg.tif	611157.603354	611157.861943	611158.552098	6.589676e-01	81	none	NaN	NaN
110	2	27	94	kitchen	sun_ahywdevtimnqcsln.tif	611159.321723	611159.580309	611160.270380	7.507226e-01	84	none	NaN	NaN
110	2	28	78	kitchen	sun_adgqasybjyktddhj.tif	611161.040094	611161.298679	611161.988755	7.256985e-01	68	none	NaN	NaN
110	2	29	102	kitchen	sun_auaiucuqpdausiva.tif	611162.758461	611163.017051	611163.707074	6.923330e-01	92	none	NaN	NaN
110	2	30	95	kitchen	sun_aixorpehvfykdynp.tif	611164.476830	611164.735420	611165.425462	6.673090e-01	85	none	NaN	NaN
110	2	31	81	kitchen	sun_aehawpgmrlhlvcow.tif	611166.195199	611166.453792	611167.143892	7.006744e-01	71	39	611168.237634	1
110	2	32	74	kitchen	sun_acfmftudsenhrfhy.tif	611169.014662	611169.273251	611169.963274	8.341362e-01	64	37	611170.613447	1
110	2	33	72	kitchen	sun_abpwyqmlzafvklqo.tif	611171.392018	611171.650600	611172.340649	7.090158e-01	62	none	NaN	NaN
110	2	34	109	kitchen	sun_aypmqwcualkenuoe.tif	611173.110384	611173.368972	611174.059145	7.173571e-01	99	37	611175.149490	1
110	2	35	63	kitchen	labelme_rykdqxenmhulbdn.tif	611175.921498	611176.180089	611176.870092	7.757467e-01	53	none	NaN	NaN
110	2	36	105	kitchen	sun_avszsnwsbuqfgzbn.tif	611177.639870	611177.898463	611178.588675	7.090158e-01	95	none	NaN	NaN
110	2	37	98	kitchen	sun_akchetnepxlcxhsu.tif	611179.358239	611179.616827	611180.306999	8.091121e-01	88	none	NaN	NaN
110	2	38	86	kitchen	sun_aggjlwcdjsjcaemh.tif	611181.076611	611181.335200	611182.025291	6.673090e-01	76	none	NaN	NaN
110	2	39	68	kitchen	sun_aaxxjlsuzvqlgylf.tif	611182.794982	611183.053570	611183.743594	7.590639e-01	58	none	NaN	NaN
110	2	40	71	kitchen	sun_abftihopvusyfakt.tif	611184.513347	611184.771935	611185.462012	8.424776e-01	61	none	NaN	NaN
110	2	41	93	kitchen	sun_ahspylgoovwmwvgk.tif	611186.231718	611186.490309	611187.180378	7.674053e-01	83	39	611188.301571	1
110	2	42	100	kitchen	sun_amjjdeyrggfqgmom.tif	611189.076202	611189.334789	611190.024948	8.174535e-01	90	none	NaN	NaN
110	2	43	108	kitchen	sun_aymvwlarqodbwuoc.tif	611190.794574	611191.053164	611191.743350	6.756503e-01	98	none	NaN	NaN
110	2	44	76	kitchen	sun_acwjdupvyjsugpay.tif	611192.512938	611192.771530	611193.461754	7.840880e-01	66	none	NaN	NaN
110	2	45	97	kitchen	sun_ajkqhtgcbgpcwrwn.tif	611194.231310	611194.489898	611195.179920	7.757467e-01	87	none	NaN	NaN
110	2	46	79	kitchen	sun_admlmbcdswaszruo.tif	611195.949675	611196.208268	611196.898492	8.257948e-01	69	none	NaN	NaN
110	2	47	77	kitchen	sun_acxkpeoqbwcxfvip.tif	611197.668047	611197.926637	611198.616860	7.924294e-01	67	none	NaN	NaN
110	2	48	103	kitchen	sun_aunzlwrbjumxhwdj.tif	611199.386418	611199.645006	611200.335207	7.840880e-01	93	none	NaN	NaN
110	2	49	110	kitchen	sun_azmutvzbxypaceni.tif	611201.104786	611201.363374	611202.053422	8.007708e-01	100	none	NaN	NaN
110	2	50	101	kitchen	sun_aqeaevwwwjoqhzvl.tif	611202.823158	611203.081745	611203.771882	7.173571e-01	91	none	NaN	NaN
110	2	51	88	kitchen	sun_agubuxuukhzyzpdp.tif	611204.541526	611204.800116	611205.490272	8.174535e-01	78	none	NaN	NaN
110	2	52	92	kitchen	sun_ahpczsiumwwocjkv.tif	611206.259867	611206.518479	611207.208588	6.923330e-01	82	39	611208.189632	1
110	2	53	66	kitchen	sun_aapllqyqlykszopd.tif	611208.962570	611209.221153	611209.911220	8.091121e-01	56	none	NaN	NaN
110	2	54	102	kitchen	sun_auaiucuqpdausiva.tif	611210.680939	611210.939529	611211.629601	7.924294e-01	92	37	611212.493438	1
110	2	55	78	kitchen	sun_adgqasybjyktddhj.tif	611213.266834	611213.525425	611214.215455	7.924294e-01	68	none	NaN	NaN
110	2	56	68	kitchen	sun_aaxxjlsuzvqlgylf.tif	611214.985200	611215.243793	611215.934008	6.756503e-01	58	none	NaN	NaN
110	2	57	62	kitchen	labelme_kxvouciolcpqplr.tif	611216.703570	611216.962164	611217.652194	6.589676e-01	52	none	NaN	NaN
110	2	58	100	kitchen	sun_amjjdeyrggfqgmom.tif	611218.421943	611218.680531	611219.370593	6.923330e-01	90	none	NaN	NaN
110	2	59	74	kitchen	sun_acfmftudsenhrfhy.tif	611220.140308	611220.398900	611221.088987	7.173571e-01	64	none	NaN	NaN
110	2	60	109	kitchen	sun_aypmqwcualkenuoe.tif	611221.858679	611222.117270	611222.807340	8.424776e-01	99	none	NaN	NaN
110	2	61	105	kitchen	sun_avszsnwsbuqfgzbn.tif	611223.577050	611223.835638	611224.525754	7.590639e-01	95	none	NaN	NaN
110	2	62	67	kitchen	sun_aarfiyshqohlwkmo.tif	611225.295417	611225.554007	611226.244149	6.839917e-01	57	none	NaN	NaN
110	2	63	83	kitchen	sun_aeqdocilnnpuvuhx.tif	611227.013787	611227.272379	611227.962439	6.673090e-01	73	none	NaN	NaN
110	2	64	90	kitchen	sun_ahdycvpopffkzzsu.tif	611228.732160	611228.990743	611229.680862	6.756503e-01	80	none	NaN	NaN
110	2	65	75	kitchen	sun_acgtpgfybqjmzeyw.tif	611230.450531	611230.709116	611231.399252	7.757467e-01	65	none	NaN	NaN
110	2	66	101	kitchen	sun_aqeaevwwwjoqhzvl.tif	611232.168848	611232.427481	611233.117534	7.757467e-01	91	none	NaN	NaN
110	2	67	82	kitchen	sun_aenotlpyftoioydp.tif	611233.887265	611234.145854	611234.835907	6.839917e-01	72	39	611235.805696	1
110	2	68	97	kitchen	sun_ajkqhtgcbgpcwrwn.tif	611236.581596	611236.840187	611237.530353	7.006744e-01	87	none	NaN	NaN
110	2	69	77	kitchen	sun_acxkpeoqbwcxfvip.tif	611238.299968	611238.558557	611239.248989	7.340399e-01	67	none	NaN	NaN
110	2	70	63	kitchen	labelme_rykdqxenmhulbdn.tif	611240.018340	611240.276932	611240.967033	7.423812e-01	53	none	NaN	NaN
110	2	71	87	kitchen	sun_agorklincwxrdtga.tif	611241.736705	611241.995299	611242.685358	8.341362e-01	77	none	NaN	NaN
110	2	72	84	kitchen	sun_aexklacwqwezaorf.tif	611243.455071	611243.713669	611244.403669	7.674053e-01	74	none	NaN	NaN
110	2	73	94	kitchen	sun_ahywdevtimnqcsln.tif	611245.173446	611245.432034	611246.122201	6.923330e-01	84	37	611249.837339	1
110	2	74	65	kitchen	sun_aamedkxepzlwuxes.tif	611250.612166	611250.870754	611251.560963	8.508189e-01	55	none	NaN	NaN
110	2	75	96	kitchen	sun_ajcbwwvdlsvjyzje.tif	611252.330534	611252.589128	611253.279270	7.507226e-01	86	39	611254.133663	1
110	2	76	106	kitchen	sun_awcpdzzznmweyyhv.tif	611254.908091	611255.166679	611255.856847	8.007708e-01	96	none	NaN	NaN
110	2	77	80	kitchen	sun_aegoxogugdkwpmpj.tif	611256.626458	611256.885045	611257.575158	8.257948e-01	70	39	611258.973471	0
110	2	78	95	kitchen	sun_aixorpehvfykdynp.tif	611259.746220	611260.004809	611260.694879	7.423812e-01	85	none	NaN	NaN
110	2	79	81	kitchen	sun_aehawpgmrlhlvcow.tif	611261.464589	611261.723177	611262.413390	8.174535e-01	71	none	NaN	NaN
110	2	80	76	kitchen	sun_acwjdupvyjsugpay.tif	611263.182951	611263.441547	611264.131615	6.589676e-01	66	39	611265.517655	1
110	2	81	61	kitchen	labelme_brsyyvweiuaazfr.tif	611266.294373	611266.552951	611267.243095	8.091121e-01	51	none	NaN	NaN
110	2	82	98	kitchen	sun_akchetnepxlcxhsu.tif	611268.012737	611268.271330	611268.961543	8.007708e-01	88	none	NaN	NaN
110	2	83	91	kitchen	sun_ahljzhgcdpomplvg.tif	611269.731108	611269.989697	611270.679887	6.506262e-01	81	none	NaN	NaN
110	2	84	72	kitchen	sun_abpwyqmlzafvklqo.tif	611271.449475	611271.708071	611272.398256	6.589676e-01	62	none	NaN	NaN
110	2	85	107	kitchen	sun_axyyrmzcupyhlivc.tif	611273.167844	611273.426435	611274.116561	7.423812e-01	97	39	611275.261687	1
110	2	86	104	kitchen	sun_auticobqsbwgoppi.tif	611276.037354	611276.295947	611276.985960	6.839917e-01	94	none	NaN	NaN
110	2	87	108	kitchen	sun_aymvwlarqodbwuoc.tif	611277.755729	611278.014314	611278.704487	7.256985e-01	98	none	NaN	NaN
110	2	88	93	kitchen	sun_ahspylgoovwmwvgk.tif	611279.474092	611279.732684	611280.422810	8.257948e-01	83	none	NaN	NaN
110	2	89	86	kitchen	sun_aggjlwcdjsjcaemh.tif	611281.192465	611281.451054	611282.141228	8.174535e-01	76	none	NaN	NaN
110	2	90	103	kitchen	sun_aunzlwrbjumxhwdj.tif	611282.910832	611283.169423	611283.859494	6.506262e-01	93	none	NaN	NaN
110	2	91	73	kitchen	sun_abrcnpqqhmjwekyf.tif	611284.629202	611284.887791	611285.577904	7.340399e-01	63	none	NaN	NaN
110	2	92	89	kitchen	sun_agzzivivdpnawacl.tif	611286.347571	611286.606161	611287.296247	7.674053e-01	79	none	NaN	NaN
110	2	93	71	kitchen	sun_abftihopvusyfakt.tif	611288.065944	611288.324528	611289.014719	6.756503e-01	61	none	NaN	NaN
110	2	94	85	kitchen	sun_afuyedyxivkhecmu.tif	611289.784306	611290.042894	611290.732957	8.508189e-01	75	none	NaN	NaN
110	2	95	64	kitchen	sun_aadbddgrdsjugojn.tif	611291.502677	611291.761266	611292.451357	6.673090e-01	54	none	NaN	NaN
110	2	96	110	kitchen	sun_azmutvzbxypaceni.tif	611293.221049	611293.479639	611294.169731	8.424776e-01	100	none	NaN	NaN
110	2	97	70	kitchen	sun_abdxkyyxwfskuaqb.tif	611294.939418	611295.197998	611295.888019	8.341362e-01	60	none	NaN	NaN
110	2	98	99	kitchen	sun_akcjzhbbjlbogpdi.tif	611296.657783	611296.916374	611297.606579	7.840880e-01	89	none	NaN	NaN
110	2	99	79	kitchen	sun_admlmbcdswaszruo.tif	611298.376156	611298.634740	611299.324846	8.091121e-01	69	none	NaN	NaN
110	2	100	69	kitchen	sun_abdenxonkemggwsq.tif	611300.094526	611300.353111	611301.043251	7.256985e-01	59	none	NaN	NaN
110	3	1	27	bathroom	sun_ahcvzmoyaycdoftf.tif	611318.095693	611318.354283	611319.169504	8.257948e-01	17	none	NaN	NaN
110	3	2	21	bathroom	sun_aggnnqpdorgxpvce.tif	611319.930839	611320.189435	611321.004616	6.923330e-01	11	39	611321.925635	1
110	3	3	19	bathroom	sun_aclfzgynxzxlbepz.tif	611322.700253	611322.958842	611323.774012	8.257948e-01	9	none	NaN	NaN
110	3	4	46	bathroom	sun_apmqjbnwghzuhhzh.tif	611324.543750	611324.802333	611325.617478	7.090158e-01	36	none	NaN	NaN
110	3	5	17	bathroom	sun_acegryoqftbzowsg.tif	611326.387237	611326.645827	611327.461126	8.424776e-01	7	none	NaN	NaN
110	3	6	34	bathroom	sun_alkosphxlxwjwgjd.tif	611328.230734	611328.489323	611329.304494	7.256985e-01	24	none	NaN	NaN
110	3	7	18	bathroom	sun_acgyywnybuveqsro.tif	611330.074229	611330.332816	611331.148029	7.090158e-01	8	none	NaN	NaN
110	3	8	38	bathroom	sun_anhioqovhscjqqwb.tif	611331.917718	611332.176306	611332.991466	6.756503e-01	28	none	NaN	NaN
110	3	9	50	bathroom	sun_aspsyogrekjtfozg.tif	611333.761209	611334.019805	611334.835030	8.424776e-01	40	none	NaN	NaN
110	3	10	29	bathroom	sun_ahqjwnzgolcaoidx.tif	611335.604703	611335.863295	611336.678503	7.090158e-01	19	37	611337.581644	1
110	3	11	53	bathroom	sun_ausgutylgojavyoq.tif	611338.357435	611338.616022	611339.431407	6.589676e-01	43	none	NaN	NaN
110	3	12	59	bathroom	sun_axyrejkiiaqiurjk.tif	611340.200923	611340.459516	611341.274677	7.840880e-01	49	none	NaN	NaN
110	3	13	24	bathroom	sun_agrwbmhcpmfuwmsg.tif	611342.044420	611342.303007	611343.118278	8.007708e-01	14	none	NaN	NaN
110	3	14	58	bathroom	sun_axxbkopsgyouuebh.tif	611343.887907	611344.146501	611344.961652	7.507226e-01	48	none	NaN	NaN
110	3	15	31	bathroom	sun_akiytfaagpdsphgz.tif	611345.731404	611345.989990	611346.805261	6.839917e-01	21	none	NaN	NaN
110	3	16	13	bathroom	sun_aavhrsfjbserjtht.tif	611347.574896	611347.833488	611348.648828	7.590639e-01	3	none	NaN	NaN
110	3	17	54	bathroom	sun_auzqhkafidnkrwmo.tif	611349.418387	611349.676983	611350.492306	8.341362e-01	44	37	611351.605631	1
110	3	18	37	bathroom	sun_amzlamotzwfkwjco.tif	611352.379658	611352.638243	611353.453508	7.340399e-01	27	none	NaN	NaN
110	3	19	49	bathroom	sun_asfwthctfqerjvxr.tif	611354.223153	611354.481736	611355.296958	7.173571e-01	39	none	NaN	NaN
110	3	20	45	bathroom	sun_apkxzenqapsujocq.tif	611356.066640	611356.325235	611357.140371	6.756503e-01	35	none	NaN	NaN
110	3	21	39	bathroom	sun_anryaplzeujmzfkd.tif	611357.910136	611358.168720	611358.984009	6.506262e-01	29	none	NaN	NaN
110	3	22	51	bathroom	sun_atstyziqcmkahyxk.tif	611359.753630	611360.012215	611360.827457	7.674053e-01	41	none	NaN	NaN
110	3	23	30	bathroom	sun_ajlawzvmubibwbpy.tif	611361.597120	611361.855712	611362.670905	6.923330e-01	20	none	NaN	NaN
110	3	24	33	bathroom	sun_aljolscmmzydegqp.tif	611363.432275	611363.690860	611364.506197	7.840880e-01	23	none	NaN	NaN
110	3	25	20	bathroom	sun_afcoljnjfoxjtgja.tif	611365.275763	611365.534354	611366.349630	6.756503e-01	10	none	NaN	NaN
110	3	26	60	bathroom	sun_azqyogdvyhahyram.tif	611367.119261	611367.377850	611368.193030	8.091121e-01	50	none	NaN	NaN
110	3	27	22	bathroom	sun_agguqiubmwhqqunb.tif	611368.962752	611369.221344	611370.036596	7.674053e-01	12	37	611372.541681	0
110	3	28	55	bathroom	sun_avhrdrntsqrjzccq.tif	611373.317064	611373.575652	611374.390864	7.173571e-01	45	none	NaN	NaN
110	3	29	52	bathroom	sun_aunuadmjocsddsrl.tif	611375.160560	611375.419147	611376.234300	7.006744e-01	42	none	NaN	NaN
110	3	30	14	bathroom	sun_abapwbhyhkfixyex.tif	611377.004052	611377.262646	611378.077934	7.924294e-01	4	none	NaN	NaN
110	3	31	35	bathroom	sun_alotolagknyrgtsk.tif	611378.847548	611379.106134	611379.921385	7.757467e-01	25	37	611382.045529	0
110	3	32	11	bathroom	labelme_sfxiulhjbhlyiyt.tif	611382.818143	611383.076736	611383.891907	7.340399e-01	1	none	NaN	NaN
110	3	33	48	bathroom	sun_aqrpegblszgcoujh.tif	611384.661641	611384.920230	611385.735476	8.257948e-01	38	none	NaN	NaN
110	3	34	28	bathroom	sun_ahijqszoswveeyji.tif	611386.505133	611386.763722	611387.578973	7.507226e-01	18	37	611388.069432	0
110	3	35	57	bathroom	sun_axldvoqbuvuggfmq.tif	611388.840781	611389.099369	611389.914567	7.924294e-01	47	none	NaN	NaN
110	3	36	26	bathroom	sun_ahaulkltgpkeeemi.tif	611390.684276	611390.942860	611391.758042	7.256985e-01	16	none	NaN	NaN
110	3	37	23	bathroom	sun_aghyqhbptboemmoq.tif	611392.527766	611392.786354	611393.601595	8.174535e-01	13	none	NaN	NaN
110	3	38	47	bathroom	sun_apynckhmoftszqoq.tif	611394.371263	611394.629848	611395.445062	7.423812e-01	37	none	NaN	NaN
110	3	39	42	bathroom	sun_apeeialkgkuxddgh.tif	611396.214749	611396.473337	611397.288547	7.674053e-01	32	39	611398.181581	1
110	3	40	25	bathroom	sun_agyqfjcfkdcydepw.tif	611398.959138	611399.217724	611400.032922	6.839917e-01	15	none	NaN	NaN
110	3	41	32	bathroom	sun_aleqenyvunhactkl.tif	611400.802637	611401.061221	611401.876359	7.507226e-01	22	37	611403.661413	0
110	3	42	12	bathroom	sun_aapitsgbtktqubfy.tif	611404.439568	611404.698156	611405.513488	8.007708e-01	2	none	NaN	NaN
110	3	43	36	bathroom	sun_ambriybtogmepttm.tif	611406.283056	611406.541651	611407.356833	7.006744e-01	26	none	NaN	NaN
110	3	44	44	bathroom	sun_apkruvsevgegsdwp.tif	611408.126556	611408.385141	611409.200481	8.508189e-01	34	none	NaN	NaN
110	3	45	56	bathroom	sun_awnqiikzaispgmwo.tif	611409.970045	611410.228634	611411.043851	6.756503e-01	46	none	NaN	NaN
110	3	46	15	bathroom	sun_abjtwfukuwddzted.tif	611411.813537	611412.072130	611412.887364	8.424776e-01	5	none	NaN	NaN
110	3	47	16	bathroom	sun_acduarbnmmoglmiv.tif	611413.657031	611413.915620	611414.730767	6.923330e-01	6	none	NaN	NaN
110	3	48	43	bathroom	sun_apjevzvycyhuqghb.tif	611415.500524	611415.759108	611416.574330	7.757467e-01	33	none	NaN	NaN
110	3	49	40	bathroom	sun_aofnryafpsjimzsb.tif	611417.344017	611417.602603	611418.417884	6.673090e-01	30	none	NaN	NaN
110	3	50	41	bathroom	sun_aoybiabnpadelefl.tif	611419.187512	611419.446100	611420.261385	6.673090e-01	31	none	NaN	NaN
110	3	51	27	bathroom	sun_ahcvzmoyaycdoftf.tif	611421.031005	611421.289592	611422.104755	8.341362e-01	17	37	611423.085526	1
110	3	52	36	bathroom	sun_ambriybtogmepttm.tif	611423.858801	611424.117394	611424.932540	8.341362e-01	26	none	NaN	NaN
110	3	53	37	bathroom	sun_amzlamotzwfkwjco.tif	611425.702301	611425.960886	611426.776149	8.091121e-01	27	none	NaN	NaN
110	3	54	14	bathroom	sun_abapwbhyhkfixyex.tif	611427.545794	611427.804379	611428.619669	8.007708e-01	4	none	NaN	NaN
110	3	55	40	bathroom	sun_aofnryafpsjimzsb.tif	611429.389283	611429.647865	611430.463007	7.173571e-01	30	none	NaN	NaN
110	3	56	41	bathroom	sun_aoybiabnpadelefl.tif	611431.232774	611431.491367	611432.306598	6.589676e-01	31	none	NaN	NaN
110	3	57	39	bathroom	sun_anryaplzeujmzfkd.tif	611433.076271	611433.334858	611434.150073	6.839917e-01	29	none	NaN	NaN
110	3	58	43	bathroom	sun_apjevzvycyhuqghb.tif	611434.919761	611435.178349	611435.993610	6.923330e-01	33	none	NaN	NaN
110	3	59	60	bathroom	sun_azqyogdvyhahyram.tif	611436.763258	611437.021843	611437.837081	7.006744e-01	50	39	611439.029726	1
110	3	60	38	bathroom	sun_anhioqovhscjqqwb.tif	611439.807939	611440.066529	611440.881853	7.256985e-01	28	none	NaN	NaN
110	3	61	12	bathroom	sun_aapitsgbtktqubfy.tif	611441.651434	611441.910025	611442.725265	7.423812e-01	2	none	NaN	NaN
110	3	62	11	bathroom	labelme_sfxiulhjbhlyiyt.tif	611443.494926	611443.753517	611444.568849	7.757467e-01	1	none	NaN	NaN
110	3	63	30	bathroom	sun_ajlawzvmubibwbpy.tif	611445.338420	611445.597009	611446.412353	8.174535e-01	20	none	NaN	NaN
110	3	64	28	bathroom	sun_ahijqszoswveeyji.tif	611447.181915	611447.440504	611448.255662	6.506262e-01	18	none	NaN	NaN
110	3	65	48	bathroom	sun_aqrpegblszgcoujh.tif	611449.025404	611449.283997	611450.099292	7.507226e-01	38	none	NaN	NaN
110	3	66	25	bathroom	sun_agyqfjcfkdcydepw.tif	611450.868900	611451.127488	611451.942686	7.423812e-01	15	none	NaN	NaN
110	3	67	23	bathroom	sun_aghyqhbptboemmoq.tif	611452.712393	611452.970984	611453.786333	6.923330e-01	13	none	NaN	NaN
110	3	68	16	bathroom	sun_acduarbnmmoglmiv.tif	611454.555886	611454.814470	611455.629722	7.340399e-01	6	none	NaN	NaN
110	3	69	58	bathroom	sun_axxbkopsgyouuebh.tif	611456.399377	611456.657962	611457.473140	8.257948e-01	48	none	NaN	NaN
110	3	70	21	bathroom	sun_aggnnqpdorgxpvce.tif	611458.242871	611458.501461	611459.316683	8.174535e-01	11	none	NaN	NaN
110	3	71	26	bathroom	sun_ahaulkltgpkeeemi.tif	611460.086367	611460.344951	611461.160235	8.091121e-01	16	none	NaN	NaN
110	3	72	34	bathroom	sun_alkosphxlxwjwgjd.tif	611461.929855	611462.188447	611463.003621	6.506262e-01	24	none	NaN	NaN
110	3	73	52	bathroom	sun_aunuadmjocsddsrl.tif	611463.773349	611464.031937	611464.847066	6.673090e-01	42	none	NaN	NaN
110	3	74	15	bathroom	sun_abjtwfukuwddzted.tif	611465.616843	611465.875431	611466.690600	7.590639e-01	5	none	NaN	NaN
110	3	75	13	bathroom	sun_aavhrsfjbserjtht.tif	611467.460335	611467.718924	611468.534053	7.674053e-01	3	none	NaN	NaN
110	3	76	46	bathroom	sun_apmqjbnwghzuhhzh.tif	611469.303826	611469.562419	611470.377761	8.424776e-01	36	none	NaN	NaN
110	3	77	59	bathroom	sun_axyrejkiiaqiurjk.tif	611471.147323	611471.405914	611472.221055	7.924294e-01	49	none	NaN	NaN
110	3	78	42	bathroom	sun_apeeialkgkuxddgh.tif	611472.990814	611473.249401	611474.064696	7.840880e-01	32	none	NaN	NaN
110	3	79	24	bathroom	sun_agrwbmhcpmfuwmsg.tif	611474.834308	611475.092884	611475.908215	8.007708e-01	14	none	NaN	NaN
110	3	80	35	bathroom	sun_alotolagknyrgtsk.tif	611476.677802	611476.936394	611477.751534	7.173571e-01	25	37	611478.485701	1
110	3	81	57	bathroom	sun_axldvoqbuvuggfmq.tif	611479.263694	611479.522285	611480.337542	8.257948e-01	47	none	NaN	NaN
110	3	82	32	bathroom	sun_aleqenyvunhactkl.tif	611481.107190	611481.365779	611482.181024	7.423812e-01	22	none	NaN	NaN
110	3	83	55	bathroom	sun_avhrdrntsqrjzccq.tif	611482.950683	611483.209273	611484.024666	7.924294e-01	45	37	611484.981656	1
110	3	84	22	bathroom	sun_agguqiubmwhqqunb.tif	611485.753460	611486.012048	611486.827362	6.589676e-01	12	none	NaN	NaN
110	3	85	45	bathroom	sun_apkxzenqapsujocq.tif	611487.596953	611487.855541	611488.670844	7.340399e-01	35	none	NaN	NaN
110	3	86	20	bathroom	sun_afcoljnjfoxjtgja.tif	611489.440447	611489.699037	611490.514355	7.840880e-01	10	37	611491.221470	1
110	3	87	19	bathroom	sun_aclfzgynxzxlbepz.tif	611491.992973	611492.251565	611493.066805	7.590639e-01	9	none	NaN	NaN
110	3	88	31	bathroom	sun_akiytfaagpdsphgz.tif	611493.836467	611494.095050	611494.910405	7.590639e-01	21	none	NaN	NaN
110	3	89	47	bathroom	sun_apynckhmoftszqoq.tif	611495.679958	611495.938546	611496.753783	8.508189e-01	37	none	NaN	NaN
110	3	90	17	bathroom	sun_acegryoqftbzowsg.tif	611497.523455	611497.782045	611498.597341	6.839917e-01	7	none	NaN	NaN
110	3	91	33	bathroom	sun_aljolscmmzydegqp.tif	611499.366947	611499.625536	611500.440773	7.256985e-01	23	none	NaN	NaN
110	3	92	51	bathroom	sun_atstyziqcmkahyxk.tif	611501.210440	611501.469031	611502.284190	6.673090e-01	41	37	611503.877454	1
110	3	93	54	bathroom	sun_auzqhkafidnkrwmo.tif	611504.655520	611504.914111	611505.729387	8.174535e-01	44	none	NaN	NaN
110	3	94	18	bathroom	sun_acgyywnybuveqsro.tif	611506.499015	611506.757601	611507.572765	7.006744e-01	8	none	NaN	NaN
110	3	95	50	bathroom	sun_aspsyogrekjtfozg.tif	611508.342502	611508.601095	611509.416287	7.090158e-01	40	none	NaN	NaN
110	3	96	53	bathroom	sun_ausgutylgojavyoq.tif	611510.185997	611510.444589	611511.259801	7.757467e-01	43	none	NaN	NaN
110	3	97	56	bathroom	sun_awnqiikzaispgmwo.tif	611512.029492	611512.288076	611513.103240	8.091121e-01	46	37	611514.013598	1
110	3	98	49	bathroom	sun_asfwthctfqerjvxr.tif	611514.790561	611515.049143	611515.864456	7.590639e-01	39	none	NaN	NaN
110	3	99	44	bathroom	sun_apkruvsevgegsdwp.tif	611516.634050	611516.892644	611517.707885	6.589676e-01	34	none	NaN	NaN
110	3	100	29	bathroom	sun_ahqjwnzgolcaoidx.tif	611518.477541	611518.736133	611519.551413	8.341362e-01	19	none	NaN	NaN
110	4	1	68	kitchen	sun_aaxxjlsuzvqlgylf.tif	611525.392731	611525.651317	611526.349753	7.256985e-01	58	none	NaN	NaN
110	4	2	77	kitchen	sun_acxkpeoqbwcxfvip.tif	611527.119442	611527.378034	611528.076487	7.006744e-01	67	none	NaN	NaN
110	4	3	79	kitchen	sun_admlmbcdswaszruo.tif	611528.846152	611529.104742	611529.803165	8.174535e-01	69	none	NaN	NaN
110	4	4	86	kitchen	sun_aggjlwcdjsjcaemh.tif	611530.572859	611530.831451	611531.529920	7.090158e-01	76	none	NaN	NaN
110	4	5	94	kitchen	sun_ahywdevtimnqcsln.tif	611532.299575	611532.558161	611533.256707	7.006744e-01	84	none	NaN	NaN
110	4	6	95	kitchen	sun_aixorpehvfykdynp.tif	611534.026285	611534.284875	611534.983307	6.756503e-01	85	none	NaN	NaN
110	4	7	75	kitchen	sun_acgtpgfybqjmzeyw.tif	611535.752999	611536.011586	611536.710124	7.507226e-01	65	none	NaN	NaN
110	4	8	88	kitchen	sun_agubuxuukhzyzpdp.tif	611537.479703	611537.738292	611538.436713	6.589676e-01	78	none	NaN	NaN
110	4	9	85	kitchen	sun_afuyedyxivkhecmu.tif	611539.206413	611539.465005	611540.163568	7.840880e-01	75	37	611540.813296	1
110	4	10	104	kitchen	sun_auticobqsbwgoppi.tif	611541.592113	611541.850702	611542.549202	7.590639e-01	94	37	611543.101328	0
110	4	11	72	kitchen	sun_abpwyqmlzafvklqo.tif	611543.877709	611544.136302	611544.834745	7.924294e-01	62	none	NaN	NaN
110	4	12	66	kitchen	sun_aapllqyqlykszopd.tif	611545.604420	611545.863010	611546.561542	7.256985e-01	56	none	NaN	NaN
110	4	13	69	kitchen	sun_abdenxonkemggwsq.tif	611547.331128	611547.589719	611548.288202	8.091121e-01	59	37	611549.237291	0
110	4	14	108	kitchen	sun_aymvwlarqodbwuoc.tif	611550.008780	611550.267373	611550.965759	6.756503e-01	98	none	NaN	NaN
110	4	15	105	kitchen	sun_avszsnwsbuqfgzbn.tif	611551.735496	611551.994077	611552.692548	7.507226e-01	95	none	NaN	NaN
110	4	16	78	kitchen	sun_adgqasybjyktddhj.tif	611553.462204	611553.720791	611554.419250	8.007708e-01	68	none	NaN	NaN
110	4	17	101	kitchen	sun_aqeaevwwwjoqhzvl.tif	611555.188918	611555.447504	611556.145991	8.508189e-01	91	39	611557.589507	1
110	4	18	99	kitchen	sun_akcjzhbbjlbogpdi.tif	611558.367061	611558.625649	611559.324246	6.839917e-01	89	none	NaN	NaN
110	4	19	90	kitchen	sun_ahdycvpopffkzzsu.tif	611560.093772	611560.352361	611561.050780	7.423812e-01	80	none	NaN	NaN
110	4	20	70	kitchen	sun_abdxkyyxwfskuaqb.tif	611561.820487	611562.079076	611562.777525	8.341362e-01	60	none	NaN	NaN
110	4	21	81	kitchen	sun_aehawpgmrlhlvcow.tif	611563.547200	611563.805789	611564.504260	8.007708e-01	71	39	611566.221686	1
110	4	22	106	kitchen	sun_awcpdzzznmweyyhv.tif	611566.992277	611567.250867	611567.949305	8.091121e-01	96	none	NaN	NaN
110	4	23	93	kitchen	sun_ahspylgoovwmwvgk.tif	611568.718987	611568.977578	611569.676011	6.506262e-01	83	none	NaN	NaN
110	4	24	97	kitchen	sun_ajkqhtgcbgpcwrwn.tif	611570.445695	611570.704288	611571.402687	7.173571e-01	87	none	NaN	NaN
110	4	25	91	kitchen	sun_ahljzhgcdpomplvg.tif	611572.172409	611572.430993	611573.129546	7.256985e-01	81	none	NaN	NaN
110	4	26	96	kitchen	sun_ajcbwwvdlsvjyzje.tif	611573.899118	611574.157709	611574.856138	8.091121e-01	86	none	NaN	NaN
110	4	27	62	kitchen	labelme_kxvouciolcpqplr.tif	611575.625827	611575.884416	611576.582776	7.757467e-01	52	none	NaN	NaN
110	4	28	109	kitchen	sun_aypmqwcualkenuoe.tif	611577.352539	611577.611131	611578.309505	7.757467e-01	99	37	611579.029469	1
110	4	29	76	kitchen	sun_acwjdupvyjsugpay.tif	611579.804971	611580.063563	611580.762079	8.091121e-01	66	none	NaN	NaN
110	4	30	87	kitchen	sun_agorklincwxrdtga.tif	611581.531679	611581.790265	611582.490441	8.424776e-01	77	none	NaN	NaN
110	4	31	102	kitchen	sun_auaiucuqpdausiva.tif	611583.258390	611583.516977	611584.215536	8.341362e-01	92	none	NaN	NaN
110	4	32	110	kitchen	sun_azmutvzbxypaceni.tif	611584.985104	611585.243689	611585.942419	7.674053e-01	100	39	611586.957745	1
110	4	33	98	kitchen	sun_akchetnepxlcxhsu.tif	611587.729487	611587.988076	611588.686450	6.673090e-01	88	none	NaN	NaN
110	4	34	100	kitchen	sun_amjjdeyrggfqgmom.tif	611589.456196	611589.714789	611590.413326	7.340399e-01	90	39	611592.941720	0
110	4	35	107	kitchen	sun_axyyrmzcupyhlivc.tif	611593.718755	611593.977342	611594.675808	7.674053e-01	97	none	NaN	NaN
110	4	36	65	kitchen	sun_aamedkxepzlwuxes.tif	611595.445463	611595.704052	611596.402414	8.174535e-01	55	none	NaN	NaN
110	4	37	64	kitchen	sun_aadbddgrdsjugojn.tif	611597.172173	611597.430767	611598.129166	7.340399e-01	54	37	611600.037676	1
110	4	38	89	kitchen	sun_agzzivivdpnawacl.tif	611600.809111	611601.067701	611601.766243	8.424776e-01	79	none	NaN	NaN
110	4	39	103	kitchen	sun_aunzlwrbjumxhwdj.tif	611602.535822	611602.794411	611603.492842	6.839917e-01	93	none	NaN	NaN
110	4	40	71	kitchen	sun_abftihopvusyfakt.tif	611604.262531	611604.521127	611605.219639	7.423812e-01	61	none	NaN	NaN
110	4	41	83	kitchen	sun_aeqdocilnnpuvuhx.tif	611605.989244	611606.247828	611606.946236	6.506262e-01	73	none	NaN	NaN
110	4	42	73	kitchen	sun_abrcnpqqhmjwekyf.tif	611607.715958	611607.974547	611608.673101	6.506262e-01	63	none	NaN	NaN
110	4	43	84	kitchen	sun_aexklacwqwezaorf.tif	611609.442667	611609.701257	611610.399770	7.173571e-01	74	none	NaN	NaN
110	4	44	92	kitchen	sun_ahpczsiumwwocjkv.tif	611611.169380	611611.427966	611612.126390	7.674053e-01	82	none	NaN	NaN
110	4	45	82	kitchen	sun_aenotlpyftoioydp.tif	611612.896085	611613.154676	611613.853043	8.257948e-01	72	39	611617.613657	1
110	4	46	80	kitchen	sun_aegoxogugdkwpmpj.tif	611618.384855	611618.643449	611619.341934	6.923330e-01	70	none	NaN	NaN
110	4	47	61	kitchen	labelme_brsyyvweiuaazfr.tif	611620.111568	611620.370160	611621.068642	7.090158e-01	51	none	NaN	NaN
110	4	48	63	kitchen	labelme_rykdqxenmhulbdn.tif	611621.838280	611622.096868	611622.795510	8.174535e-01	53	39	611626.061630	0
110	4	49	67	kitchen	sun_aarfiyshqohlwkmo.tif	611626.834897	611627.093485	611627.791873	7.006744e-01	57	none	NaN	NaN
110	4	50	74	kitchen	sun_acfmftudsenhrfhy.tif	611628.561603	611628.820197	611629.518627	7.423812e-01	64	none	NaN	NaN
110	4	51	91	kitchen	sun_ahljzhgcdpomplvg.tif	611630.288314	611630.546906	611631.245556	7.924294e-01	81	none	NaN	NaN
110	4	52	85	kitchen	sun_afuyedyxivkhecmu.tif	611632.015029	611632.273613	611632.972060	8.257948e-01	75	none	NaN	NaN
110	4	53	78	kitchen	sun_adgqasybjyktddhj.tif	611633.741739	611634.000328	611634.698822	6.756503e-01	68	none	NaN	NaN
110	4	54	92	kitchen	sun_ahpczsiumwwocjkv.tif	611635.468449	611635.727038	611636.425601	6.589676e-01	82	none	NaN	NaN
110	4	55	87	kitchen	sun_agorklincwxrdtga.tif	611637.195156	611637.453744	611638.152195	8.257948e-01	77	none	NaN	NaN
110	4	56	102	kitchen	sun_auaiucuqpdausiva.tif	611638.921868	611639.180462	611639.879003	7.256985e-01	92	none	NaN	NaN
110	4	57	66	kitchen	sun_aapllqyqlykszopd.tif	611640.648580	611640.907171	611641.605574	8.007708e-01	56	37	611643.461690	0
110	4	58	106	kitchen	sun_awcpdzzznmweyyhv.tif	611644.235469	611644.494059	611645.192546	7.090158e-01	96	none	NaN	NaN
110	4	59	64	kitchen	sun_aadbddgrdsjugojn.tif	611645.962178	611646.220762	611646.919160	7.090158e-01	54	none	NaN	NaN
110	4	60	80	kitchen	sun_aegoxogugdkwpmpj.tif	611647.688888	611647.947478	611648.645906	6.673090e-01	70	none	NaN	NaN
110	4	61	73	kitchen	sun_abrcnpqqhmjwekyf.tif	611649.415602	611649.674192	611650.372752	7.674053e-01	63	none	NaN	NaN
110	4	62	105	kitchen	sun_avszsnwsbuqfgzbn.tif	611651.142310	611651.400898	611652.099397	7.423812e-01	95	none	NaN	NaN
110	4	63	62	kitchen	labelme_kxvouciolcpqplr.tif	611652.869019	611653.127610	611653.826103	7.173571e-01	52	none	NaN	NaN
110	4	64	89	kitchen	sun_agzzivivdpnawacl.tif	611654.595733	611654.854324	611655.552791	6.673090e-01	79	none	NaN	NaN
110	4	65	103	kitchen	sun_aunzlwrbjumxhwdj.tif	611656.322439	611656.581033	611657.279533	8.257948e-01	93	39	611660.229633	0
110	4	66	108	kitchen	sun_aymvwlarqodbwuoc.tif	611661.002076	611661.260670	611661.959096	8.424776e-01	98	none	NaN	NaN
110	4	67	72	kitchen	sun_abpwyqmlzafvklqo.tif	611662.728789	611662.987382	611663.685830	7.590639e-01	62	none	NaN	NaN
110	4	68	70	kitchen	sun_abdxkyyxwfskuaqb.tif	611664.455498	611664.714090	611665.412505	6.923330e-01	60	none	NaN	NaN
110	4	69	68	kitchen	sun_aaxxjlsuzvqlgylf.tif	611666.182211	611666.440804	611667.139161	6.756503e-01	58	39	611669.933618	0
110	4	70	110	kitchen	sun_azmutvzbxypaceni.tif	611670.711696	611670.970289	611671.668842	7.507226e-01	100	none	NaN	NaN
110	4	71	107	kitchen	sun_axyyrmzcupyhlivc.tif	611672.438405	611672.696999	611673.395404	6.923330e-01	97	none	NaN	NaN
110	4	72	97	kitchen	sun_ajkqhtgcbgpcwrwn.tif	611674.165121	611674.423706	611675.122159	7.340399e-01	87	none	NaN	NaN
110	4	73	65	kitchen	sun_aamedkxepzlwuxes.tif	611675.891827	611676.150420	611676.848928	7.590639e-01	55	37	611678.349803	0
110	4	74	99	kitchen	sun_akcjzhbbjlbogpdi.tif	611679.120027	611679.378613	611680.077078	6.839917e-01	89	none	NaN	NaN
110	4	75	94	kitchen	sun_ahywdevtimnqcsln.tif	611680.846737	611681.105327	611681.803850	7.840880e-01	84	none	NaN	NaN
110	4	76	83	kitchen	sun_aeqdocilnnpuvuhx.tif	611682.573449	611682.832035	611683.530396	8.341362e-01	73	none	NaN	NaN
110	4	77	86	kitchen	sun_aggjlwcdjsjcaemh.tif	611684.300163	611684.558749	611685.257169	6.673090e-01	76	none	NaN	NaN
110	4	78	95	kitchen	sun_aixorpehvfykdynp.tif	611686.026870	611686.285459	611686.983810	7.590639e-01	85	none	NaN	NaN
110	4	79	74	kitchen	sun_acfmftudsenhrfhy.tif	611687.753582	611688.012172	611688.710670	7.590639e-01	64	none	NaN	NaN
110	4	80	77	kitchen	sun_acxkpeoqbwcxfvip.tif	611689.480291	611689.738875	611690.437301	7.757467e-01	67	none	NaN	NaN
110	4	81	79	kitchen	sun_admlmbcdswaszruo.tif	611691.207003	611691.465596	611692.164060	7.924294e-01	69	none	NaN	NaN
110	4	82	84	kitchen	sun_aexklacwqwezaorf.tif	611692.933715	611693.192304	611693.890861	8.508189e-01	74	none	NaN	NaN
110	4	83	88	kitchen	sun_agubuxuukhzyzpdp.tif	611694.660421	611694.919014	611695.617372	7.924294e-01	78	none	NaN	NaN
110	4	84	109	kitchen	sun_aypmqwcualkenuoe.tif	611696.387133	611696.645728	611697.344219	8.424776e-01	99	none	NaN	NaN
110	4	85	63	kitchen	labelme_rykdqxenmhulbdn.tif	611698.113846	611698.372435	611699.070842	6.589676e-01	53	none	NaN	NaN
110	4	86	101	kitchen	sun_aqeaevwwwjoqhzvl.tif	611699.840558	611700.099145	611700.797618	8.341362e-01	91	none	NaN	NaN
110	4	87	93	kitchen	sun_ahspylgoovwmwvgk.tif	611701.567266	611701.825855	611702.524382	7.840880e-01	83	none	NaN	NaN
110	4	88	81	kitchen	sun_aehawpgmrlhlvcow.tif	611703.293978	611703.552566	611704.250954	7.340399e-01	71	none	NaN	NaN
110	4	89	90	kitchen	sun_ahdycvpopffkzzsu.tif	611705.020687	611705.279279	611705.977763	8.257948e-01	80	none	NaN	NaN
110	4	90	98	kitchen	sun_akchetnepxlcxhsu.tif	611706.747397	611707.005987	611707.704455	7.757467e-01	88	none	NaN	NaN
110	4	91	69	kitchen	sun_abdenxonkemggwsq.tif	611708.474111	611708.732693	611709.431272	6.923330e-01	59	none	NaN	NaN
110	4	92	96	kitchen	sun_ajcbwwvdlsvjyzje.tif	611710.200821	611710.459415	611711.157796	6.839917e-01	86	none	NaN	NaN
110	4	93	75	kitchen	sun_acgtpgfybqjmzeyw.tif	611711.927532	611712.186117	611712.884680	8.174535e-01	65	none	NaN	NaN
110	4	94	76	kitchen	sun_acwjdupvyjsugpay.tif	611713.654241	611713.912833	611714.611248	7.173571e-01	66	none	NaN	NaN
110	4	95	104	kitchen	sun_auticobqsbwgoppi.tif	611715.380955	611715.639537	611716.338096	8.007708e-01	94	none	NaN	NaN
110	4	96	82	kitchen	sun_aenotlpyftoioydp.tif	611717.107660	611717.366250	611718.064723	7.840880e-01	72	none	NaN	NaN
110	4	97	61	kitchen	labelme_brsyyvweiuaazfr.tif	611718.834370	611719.092953	611719.791352	7.006744e-01	51	none	NaN	NaN
110	4	98	71	kitchen	sun_abftihopvusyfakt.tif	611720.552743	611720.811335	611721.509804	6.589676e-01	61	none	NaN	NaN
110	4	99	67	kitchen	sun_aarfiyshqohlwkmo.tif	611722.279455	611722.538041	611723.236431	6.923330e-01	57	none	NaN	NaN
110	4	100	100	kitchen	sun_amjjdeyrggfqgmom.tif	611724.006163	611724.264752	611724.963151	7.507226e-01	90	none	NaN	NaN
110	5	1	47	bathroom	sun_apynckhmoftszqoq.tif	611730.596024	611730.854617	611731.561517	7.590639e-01	37	none	NaN	NaN
110	5	2	55	bathroom	sun_avhrdrntsqrjzccq.tif	611732.331080	611732.589669	611733.296424	6.506262e-01	45	39	611735.277722	1
110	5	3	45	bathroom	sun_apkxzenqapsujocq.tif	611736.051429	611736.310020	611737.016747	7.423812e-01	35	none	NaN	NaN
110	5	4	41	bathroom	sun_aoybiabnpadelefl.tif	611737.786483	611738.045071	611738.751890	7.090158e-01	31	none	NaN	NaN
110	5	5	21	bathroom	sun_aggnnqpdorgxpvce.tif	611739.521535	611739.780122	611740.486932	7.173571e-01	11	none	NaN	NaN
110	5	6	36	bathroom	sun_ambriybtogmepttm.tif	611741.256591	611741.515173	611742.222045	8.508189e-01	26	none	NaN	NaN
110	5	7	24	bathroom	sun_agrwbmhcpmfuwmsg.tif	611742.991640	611743.250231	611743.956956	6.756503e-01	14	none	NaN	NaN
110	5	8	37	bathroom	sun_amzlamotzwfkwjco.tif	611744.726693	611744.985284	611745.692071	7.006744e-01	27	none	NaN	NaN
110	5	9	20	bathroom	sun_afcoljnjfoxjtgja.tif	611746.461740	611746.720327	611747.427216	7.256985e-01	10	none	NaN	NaN
110	5	10	40	bathroom	sun_aofnryafpsjimzsb.tif	611748.196793	611748.455385	611749.162247	7.507226e-01	30	none	NaN	NaN
110	5	11	42	bathroom	sun_apeeialkgkuxddgh.tif	611749.931852	611750.190443	611750.897312	8.091121e-01	32	none	NaN	NaN
110	5	12	13	bathroom	sun_aavhrsfjbserjtht.tif	611751.666898	611751.925493	611752.632221	8.174535e-01	3	none	NaN	NaN
110	5	13	11	bathroom	labelme_sfxiulhjbhlyiyt.tif	611753.401955	611753.660542	611754.367280	7.256985e-01	1	none	NaN	NaN
110	5	14	34	bathroom	sun_alkosphxlxwjwgjd.tif	611755.137000	611755.395592	611756.102445	6.589676e-01	24	37	611756.997649	1
110	5	15	51	bathroom	sun_atstyziqcmkahyxk.tif	611757.772950	611758.031535	611758.738439	7.256985e-01	41	37	611760.357561	0
110	5	16	32	bathroom	sun_aleqenyvunhactkl.tif	611761.134613	611761.393204	611762.100083	7.840880e-01	22	none	NaN	NaN
110	5	17	26	bathroom	sun_ahaulkltgpkeeemi.tif	611762.869665	611763.128254	611763.835119	7.924294e-01	16	none	NaN	NaN
110	5	18	33	bathroom	sun_aljolscmmzydegqp.tif	611764.604719	611764.863309	611765.570032	7.006744e-01	23	37	611766.453493	1
110	5	19	28	bathroom	sun_ahijqszoswveeyji.tif	611767.223978	611767.482572	611768.189395	7.006744e-01	18	none	NaN	NaN
110	5	20	19	bathroom	sun_aclfzgynxzxlbepz.tif	611768.959030	611769.217624	611769.924501	7.590639e-01	9	none	NaN	NaN
110	5	21	35	bathroom	sun_alotolagknyrgtsk.tif	611770.694075	611770.952674	611771.659389	7.173571e-01	25	none	NaN	NaN
110	5	22	58	bathroom	sun_axxbkopsgyouuebh.tif	611772.429137	611772.687724	611773.394438	8.508189e-01	48	none	NaN	NaN
110	5	23	27	bathroom	sun_ahcvzmoyaycdoftf.tif	611774.164187	611774.422776	611775.129684	7.173571e-01	17	none	NaN	NaN
110	5	24	23	bathroom	sun_aghyqhbptboemmoq.tif	611775.899237	611776.157833	611776.864541	8.091121e-01	13	none	NaN	NaN
110	5	25	56	bathroom	sun_awnqiikzaispgmwo.tif	611777.634293	611777.892882	611778.599706	8.174535e-01	46	none	NaN	NaN
110	5	26	15	bathroom	sun_abjtwfukuwddzted.tif	611779.369341	611779.627939	611780.334795	7.423812e-01	5	none	NaN	NaN
110	5	27	48	bathroom	sun_aqrpegblszgcoujh.tif	611781.104397	611781.362987	611782.069898	8.424776e-01	38	none	NaN	NaN
110	5	28	18	bathroom	sun_acgyywnybuveqsro.tif	611782.839450	611783.098036	611783.804753	8.174535e-01	8	none	NaN	NaN
110	5	29	60	bathroom	sun_azqyogdvyhahyram.tif	611784.574504	611784.833094	611785.539831	8.007708e-01	50	none	NaN	NaN
110	5	30	46	bathroom	sun_apmqjbnwghzuhhzh.tif	611786.309556	611786.568146	611787.274968	6.756503e-01	36	none	NaN	NaN
110	5	31	30	bathroom	sun_ajlawzvmubibwbpy.tif	611788.044609	611788.303193	611789.009952	6.589676e-01	20	none	NaN	NaN
110	5	32	31	bathroom	sun_akiytfaagpdsphgz.tif	611789.779658	611790.038251	611790.744971	8.424776e-01	21	none	NaN	NaN
110	5	33	16	bathroom	sun_acduarbnmmoglmiv.tif	611791.514709	611791.773298	611792.480103	6.673090e-01	6	none	NaN	NaN
110	5	34	29	bathroom	sun_ahqjwnzgolcaoidx.tif	611793.249761	611793.508352	611794.215200	7.090158e-01	19	39	611795.293577	1
110	5	35	49	bathroom	sun_asfwthctfqerjvxr.tif	611796.069224	611796.327810	611797.034501	7.674053e-01	39	none	NaN	NaN
110	5	36	43	bathroom	sun_apjevzvycyhuqghb.tif	611797.804277	611798.062867	611798.769770	8.007708e-01	33	none	NaN	NaN
110	5	37	22	bathroom	sun_agguqiubmwhqqunb.tif	611799.539331	611799.797919	611800.504783	7.006744e-01	12	none	NaN	NaN
110	5	38	17	bathroom	sun_acegryoqftbzowsg.tif	611801.274381	611801.532970	611802.239724	6.673090e-01	7	none	NaN	NaN
110	5	39	44	bathroom	sun_apkruvsevgegsdwp.tif	611803.009433	611803.268024	611803.974921	7.757467e-01	34	39	611805.149654	1
110	5	40	52	bathroom	sun_aunuadmjocsddsrl.tif	611805.920651	611806.179240	611806.886091	8.007708e-01	42	none	NaN	NaN
110	5	41	59	bathroom	sun_axyrejkiiaqiurjk.tif	611807.655695	611807.914292	611808.621136	8.007708e-01	49	none	NaN	NaN
110	5	42	53	bathroom	sun_ausgutylgojavyoq.tif	611809.390756	611809.649344	611810.356138	7.090158e-01	43	none	NaN	NaN
110	5	43	12	bathroom	sun_aapitsgbtktqubfy.tif	611811.125807	611811.384398	611812.091237	6.589676e-01	2	none	NaN	NaN
110	5	44	25	bathroom	sun_agyqfjcfkdcydepw.tif	611812.860858	611813.119449	611813.826217	7.674053e-01	15	none	NaN	NaN
110	5	45	14	bathroom	sun_abapwbhyhkfixyex.tif	611814.595905	611814.854500	611815.561340	7.590639e-01	4	none	NaN	NaN
110	5	46	54	bathroom	sun_auzqhkafidnkrwmo.tif	611816.330961	611816.589554	611817.296248	8.091121e-01	44	none	NaN	NaN
110	5	47	39	bathroom	sun_anryaplzeujmzfkd.tif	611818.057671	611818.316264	611819.023067	7.840880e-01	29	none	NaN	NaN
110	5	48	38	bathroom	sun_anhioqovhscjqqwb.tif	611819.792730	611820.051317	611820.758119	6.756503e-01	28	none	NaN	NaN
110	5	49	57	bathroom	sun_axldvoqbuvuggfmq.tif	611821.527775	611821.786368	611822.493116	7.757467e-01	47	none	NaN	NaN
110	5	50	50	bathroom	sun_aspsyogrekjtfozg.tif	611823.262827	611823.521418	611824.228268	8.091121e-01	40	none	NaN	NaN
110	5	51	50	bathroom	sun_aspsyogrekjtfozg.tif	611824.997879	611825.256470	611825.963277	7.674053e-01	40	none	NaN	NaN
110	5	52	58	bathroom	sun_axxbkopsgyouuebh.tif	611826.732939	611826.991529	611827.698354	8.257948e-01	48	none	NaN	NaN
110	5	53	13	bathroom	sun_aavhrsfjbserjtht.tif	611828.467985	611828.726577	611829.433376	8.257948e-01	3	none	NaN	NaN
110	5	54	28	bathroom	sun_ahijqszoswveeyji.tif	611830.203039	611830.461630	611831.168504	7.423812e-01	18	none	NaN	NaN
110	5	55	31	bathroom	sun_akiytfaagpdsphgz.tif	611831.938088	611832.196678	611832.903404	7.590639e-01	21	none	NaN	NaN
110	5	56	14	bathroom	sun_abapwbhyhkfixyex.tif	611833.673143	611833.931737	611834.638454	8.341362e-01	4	none	NaN	NaN
110	5	57	26	bathroom	sun_ahaulkltgpkeeemi.tif	611835.408150	611835.666787	611836.373572	7.340399e-01	16	none	NaN	NaN
110	5	58	45	bathroom	sun_apkxzenqapsujocq.tif	611837.143250	611837.401837	611838.108646	8.257948e-01	35	none	NaN	NaN
110	5	59	52	bathroom	sun_aunuadmjocsddsrl.tif	611838.878300	611839.136890	611839.843642	7.840880e-01	42	none	NaN	NaN
110	5	60	15	bathroom	sun_abjtwfukuwddzted.tif	611840.613352	611840.871943	611841.578818	8.424776e-01	5	none	NaN	NaN
110	5	61	42	bathroom	sun_apeeialkgkuxddgh.tif	611842.348398	611842.606994	611843.313776	8.341362e-01	32	none	NaN	NaN
110	5	62	32	bathroom	sun_aleqenyvunhactkl.tif	611844.083456	611844.342049	611845.048883	8.341362e-01	22	none	NaN	NaN
110	5	63	34	bathroom	sun_alkosphxlxwjwgjd.tif	611845.818504	611846.077099	611846.783937	7.757467e-01	24	none	NaN	NaN
110	5	64	16	bathroom	sun_acduarbnmmoglmiv.tif	611847.553558	611847.812153	611848.519049	8.257948e-01	6	none	NaN	NaN
110	5	65	44	bathroom	sun_apkruvsevgegsdwp.tif	611849.288615	611849.547205	611850.254038	7.590639e-01	34	none	NaN	NaN
110	5	66	36	bathroom	sun_ambriybtogmepttm.tif	611851.023663	611851.282258	611851.989096	7.507226e-01	26	none	NaN	NaN
110	5	67	27	bathroom	sun_ahcvzmoyaycdoftf.tif	611852.758717	611853.017310	611853.724166	6.839917e-01	17	none	NaN	NaN
110	5	68	33	bathroom	sun_aljolscmmzydegqp.tif	611854.493771	611854.752361	611855.459065	8.174535e-01	23	37	611856.557594	0
110	5	69	49	bathroom	sun_asfwthctfqerjvxr.tif	611857.329911	611857.588505	611858.295382	6.923330e-01	39	none	NaN	NaN
110	5	70	46	bathroom	sun_apmqjbnwghzuhhzh.tif	611859.064968	611859.323555	611860.030323	6.589676e-01	36	39	611861.197632	1
110	5	71	60	bathroom	sun_azqyogdvyhahyram.tif	611861.967843	611862.226433	611862.933247	6.923330e-01	50	37	611863.957482	1
110	5	72	56	bathroom	sun_awnqiikzaispgmwo.tif	611864.728914	611864.987498	611865.694222	8.341362e-01	46	none	NaN	NaN
110	5	73	53	bathroom	sun_ausgutylgojavyoq.tif	611866.463962	611866.722556	611867.429343	7.924294e-01	43	none	NaN	NaN
110	5	74	12	bathroom	sun_aapitsgbtktqubfy.tif	611868.199014	611868.457606	611869.164415	7.924294e-01	2	none	NaN	NaN
110	5	75	38	bathroom	sun_anhioqovhscjqqwb.tif	611869.934066	611870.192658	611870.899359	6.923330e-01	28	none	NaN	NaN
110	5	76	47	bathroom	sun_apynckhmoftszqoq.tif	611871.669116	611871.927709	611872.634398	6.923330e-01	37	none	NaN	NaN
110	5	77	55	bathroom	sun_avhrdrntsqrjzccq.tif	611873.395831	611873.654422	611874.361188	6.839917e-01	45	none	NaN	NaN
110	5	78	29	bathroom	sun_ahqjwnzgolcaoidx.tif	611875.130881	611875.389474	611876.096336	8.424776e-01	19	none	NaN	NaN
110	5	79	20	bathroom	sun_afcoljnjfoxjtgja.tif	611876.865933	611877.124525	611877.831373	7.840880e-01	10	39	611879.973718	0
110	5	80	59	bathroom	sun_axyrejkiiaqiurjk.tif	611880.744776	611881.003366	611881.710071	6.506262e-01	49	none	NaN	NaN
110	5	81	39	bathroom	sun_anryaplzeujmzfkd.tif	611882.479826	611882.738422	611883.445279	7.256985e-01	29	none	NaN	NaN
110	5	82	18	bathroom	sun_acgyywnybuveqsro.tif	611884.214879	611884.473473	611885.180158	7.340399e-01	8	none	NaN	NaN
110	5	83	21	bathroom	sun_aggnnqpdorgxpvce.tif	611885.949931	611886.208519	611886.915273	7.090158e-01	11	none	NaN	NaN
110	5	84	37	bathroom	sun_amzlamotzwfkwjco.tif	611887.684987	611887.943578	611888.650284	7.173571e-01	27	39	611889.509667	1
110	5	85	11	bathroom	labelme_sfxiulhjbhlyiyt.tif	611890.287568	611890.546155	611891.252898	7.340399e-01	1	37	611891.925614	1
110	5	86	35	bathroom	sun_alotolagknyrgtsk.tif	611892.698287	611892.956879	611893.663671	7.507226e-01	25	37	611894.101468	1
110	5	87	30	bathroom	sun_ajlawzvmubibwbpy.tif	611894.875440	611895.134034	611895.840771	7.674053e-01	20	none	NaN	NaN
110	5	88	57	bathroom	sun_axldvoqbuvuggfmq.tif	611896.610491	611896.869086	611897.575768	6.839917e-01	47	none	NaN	NaN
110	5	89	22	bathroom	sun_agguqiubmwhqqunb.tif	611898.345551	611898.604137	611899.310876	6.756503e-01	12	none	NaN	NaN
110	5	90	19	bathroom	sun_aclfzgynxzxlbepz.tif	611900.080594	611900.339185	611901.046030	7.340399e-01	9	none	NaN	NaN
110	5	91	25	bathroom	sun_agyqfjcfkdcydepw.tif	611901.815654	611902.074244	611902.781359	6.673090e-01	15	37	611903.885654	1
110	5	92	43	bathroom	sun_apjevzvycyhuqghb.tif	611904.660139	611904.918717	611905.625449	6.673090e-01	33	none	NaN	NaN
110	5	93	54	bathroom	sun_auzqhkafidnkrwmo.tif	611906.395193	611906.653777	611907.360576	7.757467e-01	44	none	NaN	NaN
110	5	94	51	bathroom	sun_atstyziqcmkahyxk.tif	611908.130241	611908.388832	611909.095644	7.423812e-01	41	none	NaN	NaN
110	5	95	24	bathroom	sun_agrwbmhcpmfuwmsg.tif	611909.865295	611910.123887	611910.830675	6.839917e-01	14	none	NaN	NaN
110	5	96	23	bathroom	sun_aghyqhbptboemmoq.tif	611911.600347	611911.858933	611912.565744	6.923330e-01	13	37	611913.685651	0
110	5	97	40	bathroom	sun_aofnryafpsjimzsb.tif	611914.461513	611914.720104	611915.426993	6.506262e-01	30	none	NaN	NaN
110	5	98	41	bathroom	sun_aoybiabnpadelefl.tif	611916.196565	611916.455157	611917.161950	7.507226e-01	31	none	NaN	NaN
110	5	99	48	bathroom	sun_aqrpegblszgcoujh.tif	611917.931616	611918.190206	611918.896961	7.924294e-01	38	none	NaN	NaN
110	5	100	17	bathroom	sun_acegryoqftbzowsg.tif	611919.666670	611919.925264	611920.632034	8.257948e-01	7	none	NaN	NaN
110	6	1	64	kitchen	sun_aadbddgrdsjugojn.tif	611925.439055	611925.697648	611926.437917	8.424776e-01	54	none	NaN	NaN
110	6	2	81	kitchen	sun_aehawpgmrlhlvcow.tif	611927.207472	611927.466080	611928.206216	7.090158e-01	71	none	NaN	NaN
110	6	3	108	kitchen	sun_aymvwlarqodbwuoc.tif	611928.975892	611929.234483	611929.974704	6.839917e-01	98	none	NaN	NaN
110	6	4	65	kitchen	sun_aamedkxepzlwuxes.tif	611930.744313	611931.002900	611931.742981	8.257948e-01	55	none	NaN	NaN
110	6	5	87	kitchen	sun_agorklincwxrdtga.tif	611932.512730	611932.771318	611933.511556	8.174535e-01	77	none	NaN	NaN
110	6	6	90	kitchen	sun_ahdycvpopffkzzsu.tif	611934.281148	611934.539734	611935.279910	7.507226e-01	80	none	NaN	NaN
110	6	7	99	kitchen	sun_akcjzhbbjlbogpdi.tif	611936.049560	611936.308155	611937.048380	7.674053e-01	89	39	611938.485663	1
110	6	8	93	kitchen	sun_ahspylgoovwmwvgk.tif	611939.261082	611939.519665	611940.259909	7.006744e-01	83	none	NaN	NaN
110	6	9	62	kitchen	labelme_kxvouciolcpqplr.tif	611941.029500	611941.288091	611942.028290	6.673090e-01	52	none	NaN	NaN
110	6	10	69	kitchen	sun_abdenxonkemggwsq.tif	611942.797918	611943.056507	611943.796678	6.839917e-01	59	none	NaN	NaN
110	6	11	98	kitchen	sun_akchetnepxlcxhsu.tif	611944.566352	611944.824925	611945.565164	7.840880e-01	88	none	NaN	NaN
110	6	12	106	kitchen	sun_awcpdzzznmweyyhv.tif	611946.334757	611946.593347	611947.333482	7.924294e-01	96	none	NaN	NaN
110	6	13	109	kitchen	sun_aypmqwcualkenuoe.tif	611948.103177	611948.361763	611949.101837	6.923330e-01	99	none	NaN	NaN
110	6	14	100	kitchen	sun_amjjdeyrggfqgmom.tif	611949.871593	611950.130187	611950.870620	7.173571e-01	90	none	NaN	NaN
110	6	15	89	kitchen	sun_agzzivivdpnawacl.tif	611951.640015	611951.898605	611952.638733	8.257948e-01	79	none	NaN	NaN
110	6	16	103	kitchen	sun_aunzlwrbjumxhwdj.tif	611953.408434	611953.667020	611954.407250	6.923330e-01	93	none	NaN	NaN
110	6	17	78	kitchen	sun_adgqasybjyktddhj.tif	611955.176849	611955.435437	611956.175567	8.341362e-01	68	none	NaN	NaN
110	6	18	68	kitchen	sun_aaxxjlsuzvqlgylf.tif	611956.945272	611957.203861	611957.943924	8.257948e-01	58	none	NaN	NaN
110	6	19	71	kitchen	sun_abftihopvusyfakt.tif	611958.713689	611958.972277	611959.712470	7.090158e-01	61	none	NaN	NaN
110	6	20	105	kitchen	sun_avszsnwsbuqfgzbn.tif	611960.482108	611960.740695	611961.480967	6.506262e-01	95	37	611962.221659	0
110	6	21	73	kitchen	sun_abrcnpqqhmjwekyf.tif	611962.992922	611963.251514	611963.991736	7.590639e-01	63	none	NaN	NaN
110	6	22	67	kitchen	sun_aarfiyshqohlwkmo.tif	611964.761345	611965.019939	611965.760048	7.757467e-01	57	none	NaN	NaN
110	6	23	86	kitchen	sun_aggjlwcdjsjcaemh.tif	611966.529767	611966.788357	611967.528566	8.007708e-01	76	none	NaN	NaN
110	6	24	74	kitchen	sun_acfmftudsenhrfhy.tif	611968.298179	611968.556774	611969.296858	6.589676e-01	64	none	NaN	NaN
110	6	25	66	kitchen	sun_aapllqyqlykszopd.tif	611970.066601	611970.325193	611971.065349	7.173571e-01	56	none	NaN	NaN
110	6	26	95	kitchen	sun_aixorpehvfykdynp.tif	611971.835019	611972.093609	611972.833868	7.590639e-01	85	none	NaN	NaN
110	6	27	70	kitchen	sun_abdxkyyxwfskuaqb.tif	611973.603440	611973.862027	611974.602275	8.341362e-01	60	39	611975.765652	1
110	6	28	75	kitchen	sun_acgtpgfybqjmzeyw.tif	611976.539678	611976.798273	611977.538352	8.424776e-01	65	none	NaN	NaN
110	6	29	94	kitchen	sun_ahywdevtimnqcsln.tif	611978.308096	611978.566691	611979.306800	7.423812e-01	84	none	NaN	NaN
110	6	30	85	kitchen	sun_afuyedyxivkhecmu.tif	611980.076521	611980.335110	611981.075394	7.840880e-01	75	none	NaN	NaN
110	6	31	107	kitchen	sun_axyyrmzcupyhlivc.tif	611981.844937	611982.103523	611982.843728	8.174535e-01	97	none	NaN	NaN
110	6	32	91	kitchen	sun_ahljzhgcdpomplvg.tif	611983.613353	611983.871947	611984.612142	7.256985e-01	81	none	NaN	NaN
110	6	33	96	kitchen	sun_ajcbwwvdlsvjyzje.tif	611985.381774	611985.640365	611986.380451	7.757467e-01	86	37	611987.533692	0
110	6	34	82	kitchen	sun_aenotlpyftoioydp.tif	611988.309677	611988.568258	611989.308379	7.590639e-01	72	37	611990.261622	1
110	6	35	102	kitchen	sun_auaiucuqpdausiva.tif	611991.037373	611991.295966	611992.036027	8.007708e-01	92	37	611992.525561	1
110	6	36	72	kitchen	sun_abpwyqmlzafvklqo.tif	611993.297950	611993.556539	611994.296669	7.256985e-01	62	none	NaN	NaN
110	6	37	84	kitchen	sun_aexklacwqwezaorf.tif	611995.066367	611995.324956	611996.065115	7.674053e-01	74	39	611997.357551	1
110	6	38	101	kitchen	sun_aqeaevwwwjoqhzvl.tif	611998.136077	611998.394657	611999.134875	7.674053e-01	91	none	NaN	NaN
110	6	39	110	kitchen	sun_azmutvzbxypaceni.tif	611999.904495	612000.163087	612000.903353	6.589676e-01	100	none	NaN	NaN
110	6	40	83	kitchen	sun_aeqdocilnnpuvuhx.tif	612001.672916	612001.931507	612002.671565	8.007708e-01	73	none	NaN	NaN
110	6	41	77	kitchen	sun_acxkpeoqbwcxfvip.tif	612003.441330	612003.699923	612004.440064	8.257948e-01	67	none	NaN	NaN
110	6	42	63	kitchen	labelme_rykdqxenmhulbdn.tif	612005.209752	612005.468340	612006.208511	6.506262e-01	53	none	NaN	NaN
110	6	43	80	kitchen	sun_aegoxogugdkwpmpj.tif	612006.978170	612007.236758	612007.976814	7.090158e-01	70	none	NaN	NaN
110	6	44	79	kitchen	sun_admlmbcdswaszruo.tif	612008.746591	612009.005176	612009.745390	7.924294e-01	69	39	612013.973754	0
110	6	45	61	kitchen	labelme_brsyyvweiuaazfr.tif	612014.744195	612015.002785	612015.742970	7.006744e-01	51	none	NaN	NaN
110	6	46	97	kitchen	sun_ajkqhtgcbgpcwrwn.tif	612016.512610	612016.771202	612017.511355	7.090158e-01	87	none	NaN	NaN
110	6	47	88	kitchen	sun_agubuxuukhzyzpdp.tif	612018.281035	612018.539622	612019.279781	7.340399e-01	78	none	NaN	NaN
110	6	48	104	kitchen	sun_auticobqsbwgoppi.tif	612020.049454	612020.308043	612021.048126	7.757467e-01	94	none	NaN	NaN
110	6	49	76	kitchen	sun_acwjdupvyjsugpay.tif	612021.817869	612022.076458	612022.816558	7.590639e-01	66	none	NaN	NaN
110	6	50	92	kitchen	sun_ahpczsiumwwocjkv.tif	612023.586289	612023.844879	612024.585024	7.173571e-01	82	none	NaN	NaN
110	6	51	105	kitchen	sun_avszsnwsbuqfgzbn.tif	612025.354706	612025.613298	612026.353412	8.257948e-01	95	none	NaN	NaN
110	6	52	92	kitchen	sun_ahpczsiumwwocjkv.tif	612027.123126	612027.381714	612028.121804	8.341362e-01	82	none	NaN	NaN
110	6	53	83	kitchen	sun_aeqdocilnnpuvuhx.tif	612028.891545	612029.150136	612029.890373	7.340399e-01	73	none	NaN	NaN
110	6	54	94	kitchen	sun_ahywdevtimnqcsln.tif	612030.659964	612030.918555	612031.658741	8.091121e-01	84	none	NaN	NaN
110	6	55	101	kitchen	sun_aqeaevwwwjoqhzvl.tif	612032.428383	612032.686968	612033.427075	7.006744e-01	91	none	NaN	NaN
110	6	56	81	kitchen	sun_aehawpgmrlhlvcow.tif	612034.196804	612034.455392	612035.195479	6.839917e-01	71	none	NaN	NaN
110	6	57	87	kitchen	sun_agorklincwxrdtga.tif	612035.965219	612036.223808	612036.963995	8.091121e-01	77	none	NaN	NaN
110	6	58	89	kitchen	sun_agzzivivdpnawacl.tif	612037.733638	612037.992228	612038.732306	7.256985e-01	79	none	NaN	NaN
110	6	59	74	kitchen	sun_acfmftudsenhrfhy.tif	612039.502057	612039.760648	612040.500758	8.007708e-01	64	none	NaN	NaN
110	6	60	67	kitchen	sun_aarfiyshqohlwkmo.tif	612041.270471	612041.529062	612042.269151	6.923330e-01	57	none	NaN	NaN
110	6	61	63	kitchen	labelme_rykdqxenmhulbdn.tif	612043.038897	612043.297485	612044.037609	6.673090e-01	53	none	NaN	NaN
110	6	62	84	kitchen	sun_aexklacwqwezaorf.tif	612044.807316	612045.065902	612045.806141	6.589676e-01	74	none	NaN	NaN
110	6	63	103	kitchen	sun_aunzlwrbjumxhwdj.tif	612046.575731	612046.834321	612047.574396	6.923330e-01	93	37	612048.717556	1
110	6	64	91	kitchen	sun_ahljzhgcdpomplvg.tif	612049.495292	612049.753878	612050.494122	6.923330e-01	81	none	NaN	NaN
110	6	65	62	kitchen	labelme_kxvouciolcpqplr.tif	612051.263713	612051.522302	612052.262360	7.423812e-01	52	37	612054.365644	0
110	6	66	106	kitchen	sun_awcpdzzznmweyyhv.tif	612055.142547	612055.401145	612056.141410	6.673090e-01	96	none	NaN	NaN
110	6	67	68	kitchen	sun_aaxxjlsuzvqlgylf.tif	612056.910969	612057.169560	612057.909824	7.507226e-01	58	none	NaN	NaN
110	6	68	65	kitchen	sun_aamedkxepzlwuxes.tif	612058.679389	612058.937984	612059.678210	7.340399e-01	55	none	NaN	NaN
110	6	69	96	kitchen	sun_ajcbwwvdlsvjyzje.tif	612060.447822	612060.706394	612061.446662	7.006744e-01	86	none	NaN	NaN
110	6	70	110	kitchen	sun_azmutvzbxypaceni.tif	612062.216227	612062.474816	612063.214960	8.424776e-01	100	none	NaN	NaN
110	6	71	77	kitchen	sun_acxkpeoqbwcxfvip.tif	612063.984646	612064.243235	612064.983326	8.508189e-01	67	37	612067.149516	0
110	6	72	86	kitchen	sun_aggjlwcdjsjcaemh.tif	612067.921881	612068.180464	612068.920542	7.924294e-01	76	none	NaN	NaN
110	6	73	64	kitchen	sun_aadbddgrdsjugojn.tif	612069.690296	612069.948886	612070.688950	6.756503e-01	54	none	NaN	NaN
110	6	74	76	kitchen	sun_acwjdupvyjsugpay.tif	612071.458720	612071.717304	612072.457377	8.174535e-01	66	none	NaN	NaN
110	6	75	104	kitchen	sun_auticobqsbwgoppi.tif	612073.227138	612073.485727	612074.225963	8.508189e-01	94	none	NaN	NaN
110	6	76	95	kitchen	sun_aixorpehvfykdynp.tif	612074.995553	612075.254145	612075.994224	7.507226e-01	85	none	NaN	NaN
110	6	77	109	kitchen	sun_aypmqwcualkenuoe.tif	612076.763974	612077.022561	612077.762649	8.341362e-01	99	none	NaN	NaN
110	6	78	108	kitchen	sun_aymvwlarqodbwuoc.tif	612078.532395	612078.790985	612079.531273	6.756503e-01	98	39	612080.749347	0
110	6	79	100	kitchen	sun_amjjdeyrggfqgmom.tif	612081.527024	612081.785617	612082.525850	7.590639e-01	90	none	NaN	NaN
110	6	80	99	kitchen	sun_akcjzhbbjlbogpdi.tif	612083.295441	612083.554031	612084.294260	6.589676e-01	89	none	NaN	NaN
110	6	81	70	kitchen	sun_abdxkyyxwfskuaqb.tif	612085.063856	612085.322453	612086.062562	7.173571e-01	60	none	NaN	NaN
110	6	82	75	kitchen	sun_acgtpgfybqjmzeyw.tif	612086.832281	612087.090870	612087.831003	6.673090e-01	65	37	612089.565521	1
110	6	83	90	kitchen	sun_ahdycvpopffkzzsu.tif	612090.335752	612090.594339	612091.334479	6.756503e-01	80	none	NaN	NaN
110	6	84	97	kitchen	sun_ajkqhtgcbgpcwrwn.tif	612092.104170	612092.362761	612093.102978	6.839917e-01	87	none	NaN	NaN
110	6	85	88	kitchen	sun_agubuxuukhzyzpdp.tif	612093.872588	612094.131182	612094.871236	6.506262e-01	78	none	NaN	NaN
110	6	86	80	kitchen	sun_aegoxogugdkwpmpj.tif	612095.632666	612095.891256	612096.631435	8.091121e-01	70	none	NaN	NaN
110	6	87	82	kitchen	sun_aenotlpyftoioydp.tif	612097.401082	612097.659674	612098.399729	7.256985e-01	72	none	NaN	NaN
110	6	88	102	kitchen	sun_auaiucuqpdausiva.tif	612099.169505	612099.428090	612100.168316	7.924294e-01	92	39	612101.029640	1
110	6	89	66	kitchen	sun_aapllqyqlykszopd.tif	612101.805448	612102.064037	612102.804288	7.840880e-01	56	none	NaN	NaN
110	6	90	78	kitchen	sun_adgqasybjyktddhj.tif	612103.573864	612103.832455	612104.572688	8.091121e-01	68	none	NaN	NaN
110	6	91	61	kitchen	labelme_brsyyvweiuaazfr.tif	612105.342288	612105.600874	612106.341038	8.174535e-01	51	none	NaN	NaN
110	6	92	79	kitchen	sun_admlmbcdswaszruo.tif	612107.110700	612107.369291	612108.109435	8.424776e-01	69	37	612108.869627	1
110	6	93	73	kitchen	sun_abrcnpqqhmjwekyf.tif	612109.646550	612109.905142	612110.645351	7.674053e-01	63	none	NaN	NaN
110	6	94	69	kitchen	sun_abdenxonkemggwsq.tif	612111.414973	612111.673564	612112.413751	6.756503e-01	59	none	NaN	NaN
110	6	95	98	kitchen	sun_akchetnepxlcxhsu.tif	612113.183388	612113.441973	612114.182216	7.757467e-01	88	none	NaN	NaN
110	6	96	107	kitchen	sun_axyyrmzcupyhlivc.tif	612114.951806	612115.210400	612115.950498	7.840880e-01	97	none	NaN	NaN
110	6	97	71	kitchen	sun_abftihopvusyfakt.tif	612116.720221	612116.978816	612117.718979	7.507226e-01	61	none	NaN	NaN
110	6	98	85	kitchen	sun_afuyedyxivkhecmu.tif	612118.488643	612118.747229	612119.487378	7.340399e-01	75	none	NaN	NaN
110	6	99	93	kitchen	sun_ahspylgoovwmwvgk.tif	612120.257062	612120.515647	612121.255892	7.423812e-01	83	none	NaN	NaN
110	6	100	72	kitchen	sun_abpwyqmlzafvklqo.tif	612122.025478	612122.284065	612123.024260	7.423812e-01	62	none	NaN	NaN
110	7	1	30	bathroom	sun_ajlawzvmubibwbpy.tif	612127.856259	612128.114846	612128.804873	6.673090e-01	20	37	612129.701533	1
110	7	2	24	bathroom	sun_agrwbmhcpmfuwmsg.tif	612130.475519	612130.734106	612131.424233	7.423812e-01	14	none	NaN	NaN
110	7	3	18	bathroom	sun_acgyywnybuveqsro.tif	612132.193882	612132.452479	612133.142598	7.674053e-01	8	none	NaN	NaN
110	7	4	11	bathroom	labelme_sfxiulhjbhlyiyt.tif	612133.912257	612134.170848	612134.860966	7.507226e-01	1	none	NaN	NaN
110	7	5	36	bathroom	sun_ambriybtogmepttm.tif	612135.630627	612135.889216	612136.579328	7.840880e-01	26	none	NaN	NaN
110	7	6	59	bathroom	sun_axyrejkiiaqiurjk.tif	612137.348994	612137.607587	612138.297719	8.007708e-01	49	39	612139.629475	1
110	7	7	41	bathroom	sun_aoybiabnpadelefl.tif	612140.402017	612140.660612	612141.350795	7.006744e-01	31	none	NaN	NaN
110	7	8	27	bathroom	sun_ahcvzmoyaycdoftf.tif	612142.120385	612142.378976	612143.069160	7.340399e-01	17	none	NaN	NaN
110	7	9	33	bathroom	sun_aljolscmmzydegqp.tif	612143.838756	612144.097347	612144.787479	7.423812e-01	23	none	NaN	NaN
110	7	10	19	bathroom	sun_aclfzgynxzxlbepz.tif	612145.557123	612145.815719	612146.505772	6.756503e-01	9	none	NaN	NaN
110	7	11	50	bathroom	sun_aspsyogrekjtfozg.tif	612147.275496	612147.534088	612148.224101	7.507226e-01	40	none	NaN	NaN
110	7	12	25	bathroom	sun_agyqfjcfkdcydepw.tif	612148.985523	612149.244102	612149.934182	6.506262e-01	15	37	612150.765512	1
110	7	13	48	bathroom	sun_aqrpegblszgcoujh.tif	612151.538054	612151.796642	612152.486752	8.007708e-01	38	none	NaN	NaN
110	7	14	52	bathroom	sun_aunuadmjocsddsrl.tif	612153.256420	612153.515012	612154.205126	8.341362e-01	42	none	NaN	NaN
110	7	15	45	bathroom	sun_apkxzenqapsujocq.tif	612154.974794	612155.233382	612155.923395	7.924294e-01	35	none	NaN	NaN
110	7	16	54	bathroom	sun_auzqhkafidnkrwmo.tif	612156.693155	612156.951740	612157.641848	6.839917e-01	44	none	NaN	NaN
110	7	17	43	bathroom	sun_apjevzvycyhuqghb.tif	612158.411532	612158.670121	612159.360189	6.923330e-01	33	37	612159.965741	1
110	7	18	23	bathroom	sun_aghyqhbptboemmoq.tif	612160.738834	612160.997422	612161.687472	7.590639e-01	13	none	NaN	NaN
110	7	19	57	bathroom	sun_axldvoqbuvuggfmq.tif	612162.457203	612162.715797	612163.405888	7.507226e-01	47	none	NaN	NaN
110	7	20	13	bathroom	sun_aavhrsfjbserjtht.tif	612164.175572	612164.434162	612165.124366	8.174535e-01	3	none	NaN	NaN
110	7	21	28	bathroom	sun_ahijqszoswveeyji.tif	612165.893941	612166.152536	612166.842567	7.340399e-01	18	37	612167.381638	0
110	7	22	51	bathroom	sun_atstyziqcmkahyxk.tif	612168.154515	612168.413103	612169.103149	7.256985e-01	41	none	NaN	NaN
110	7	23	55	bathroom	sun_avhrdrntsqrjzccq.tif	612169.872879	612170.131475	612170.821588	7.090158e-01	45	none	NaN	NaN
110	7	24	40	bathroom	sun_aofnryafpsjimzsb.tif	612171.591251	612171.849843	612172.539859	6.923330e-01	30	none	NaN	NaN
110	7	25	44	bathroom	sun_apkruvsevgegsdwp.tif	612173.309622	612173.568208	612174.258355	8.091121e-01	34	none	NaN	NaN
110	7	26	42	bathroom	sun_apeeialkgkuxddgh.tif	612175.027988	612175.286579	612175.976588	8.174535e-01	32	none	NaN	NaN
110	7	27	20	bathroom	sun_afcoljnjfoxjtgja.tif	612176.746357	612177.004946	612177.695154	7.173571e-01	10	none	NaN	NaN
110	7	28	17	bathroom	sun_acegryoqftbzowsg.tif	612178.464730	612178.723319	612179.413343	8.257948e-01	7	none	NaN	NaN
110	7	29	37	bathroom	sun_amzlamotzwfkwjco.tif	612180.183099	612180.441691	612181.131857	6.923330e-01	27	none	NaN	NaN
110	7	30	16	bathroom	sun_acduarbnmmoglmiv.tif	612181.901465	612182.160055	612182.850124	6.839917e-01	6	none	NaN	NaN
110	7	31	34	bathroom	sun_alkosphxlxwjwgjd.tif	612183.619832	612183.878425	612184.568553	8.341362e-01	24	none	NaN	NaN
110	7	32	49	bathroom	sun_asfwthctfqerjvxr.tif	612185.338208	612185.596787	612186.286853	7.674053e-01	39	none	NaN	NaN
110	7	33	31	bathroom	sun_akiytfaagpdsphgz.tif	612187.056572	612187.315164	612188.005359	7.924294e-01	21	none	NaN	NaN
110	7	34	53	bathroom	sun_ausgutylgojavyoq.tif	612188.774941	612189.033534	612189.723612	7.090158e-01	43	39	612190.501724	1
110	7	35	39	bathroom	sun_anryaplzeujmzfkd.tif	612191.277420	612191.536012	612192.226173	8.424776e-01	29	none	NaN	NaN
110	7	36	21	bathroom	sun_aggnnqpdorgxpvce.tif	612192.995790	612193.254379	612193.944490	7.924294e-01	11	37	612195.421645	0
110	7	37	56	bathroom	sun_awnqiikzaispgmwo.tif	612196.198958	612196.457554	612197.147645	7.340399e-01	46	none	NaN	NaN
110	7	38	14	bathroom	sun_abapwbhyhkfixyex.tif	612197.917329	612198.175925	612198.866077	8.174535e-01	4	none	NaN	NaN
110	7	39	60	bathroom	sun_azqyogdvyhahyram.tif	612199.635699	612199.894292	612200.584490	7.590639e-01	50	none	NaN	NaN
110	7	40	38	bathroom	sun_anhioqovhscjqqwb.tif	612201.354069	612201.612662	612202.302730	8.257948e-01	28	none	NaN	NaN
110	7	41	47	bathroom	sun_apynckhmoftszqoq.tif	612203.072441	612203.331036	612204.021144	6.506262e-01	37	none	NaN	NaN
110	7	42	12	bathroom	sun_aapitsgbtktqubfy.tif	612204.790806	612205.049399	612205.739547	8.007708e-01	2	none	NaN	NaN
110	7	43	22	bathroom	sun_agguqiubmwhqqunb.tif	612206.509195	612206.767766	612207.457939	7.423812e-01	12	37	612208.325714	1
110	7	44	46	bathroom	sun_apmqjbnwghzuhhzh.tif	612209.103414	612209.362006	612210.052035	8.341362e-01	36	none	NaN	NaN
110	7	45	58	bathroom	sun_axxbkopsgyouuebh.tif	612210.821783	612211.080376	612211.770394	8.257948e-01	48	none	NaN	NaN
110	7	46	35	bathroom	sun_alotolagknyrgtsk.tif	612212.531809	612212.790400	612213.480467	8.424776e-01	25	none	NaN	NaN
110	7	47	26	bathroom	sun_ahaulkltgpkeeemi.tif	612214.250179	612214.508772	612215.198841	8.091121e-01	16	none	NaN	NaN
110	7	48	29	bathroom	sun_ahqjwnzgolcaoidx.tif	612215.968545	612216.227142	612216.917275	6.673090e-01	19	none	NaN	NaN
110	7	49	32	bathroom	sun_aleqenyvunhactkl.tif	612217.686921	612217.945510	612218.635721	7.590639e-01	22	none	NaN	NaN
110	7	50	15	bathroom	sun_abjtwfukuwddzted.tif	612219.405286	612219.663877	612220.353960	6.589676e-01	5	none	NaN	NaN
110	7	51	16	bathroom	sun_acduarbnmmoglmiv.tif	612221.123654	612221.382245	612222.072434	7.173571e-01	6	none	NaN	NaN
110	7	52	53	bathroom	sun_ausgutylgojavyoq.tif	612222.842021	612223.100616	612223.790718	8.341362e-01	43	none	NaN	NaN
110	7	53	23	bathroom	sun_aghyqhbptboemmoq.tif	612224.560397	612224.818984	612225.509184	7.757467e-01	13	none	NaN	NaN
110	7	54	17	bathroom	sun_acegryoqftbzowsg.tif	612226.278765	612226.537351	612227.227556	6.673090e-01	7	none	NaN	NaN
110	7	55	32	bathroom	sun_aleqenyvunhactkl.tif	612227.997133	612228.255722	612228.945812	8.424776e-01	22	37	612229.581690	1
110	7	56	37	bathroom	sun_amzlamotzwfkwjco.tif	612230.357805	612230.616392	612231.306529	8.091121e-01	27	none	NaN	NaN
110	7	57	59	bathroom	sun_axyrejkiiaqiurjk.tif	612232.076177	612232.334760	612233.024884	7.507226e-01	49	37	612233.973657	0
110	7	58	41	bathroom	sun_aoybiabnpadelefl.tif	612234.745488	612235.004075	612235.694169	7.006744e-01	31	none	NaN	NaN
110	7	59	26	bathroom	sun_ahaulkltgpkeeemi.tif	612236.463856	612236.722444	612237.412670	8.091121e-01	16	none	NaN	NaN
110	7	60	55	bathroom	sun_avhrdrntsqrjzccq.tif	612238.182218	612238.440812	612239.131017	6.756503e-01	45	none	NaN	NaN
110	7	61	40	bathroom	sun_aofnryafpsjimzsb.tif	612239.900591	612240.159183	612240.849224	7.340399e-01	30	none	NaN	NaN
110	7	62	33	bathroom	sun_aljolscmmzydegqp.tif	612241.618961	612241.877549	612242.567695	6.923330e-01	23	none	NaN	NaN
110	7	63	24	bathroom	sun_agrwbmhcpmfuwmsg.tif	612243.337328	612243.595925	612244.286132	7.590639e-01	14	none	NaN	NaN
110	7	64	39	bathroom	sun_anryaplzeujmzfkd.tif	612245.055698	612245.314286	612246.004377	8.508189e-01	29	none	NaN	NaN
110	7	65	38	bathroom	sun_anhioqovhscjqqwb.tif	612246.774066	612247.032659	612247.722869	6.589676e-01	28	none	NaN	NaN
110	7	66	15	bathroom	sun_abjtwfukuwddzted.tif	612248.492429	612248.751030	612249.441117	6.756503e-01	5	none	NaN	NaN
110	7	67	42	bathroom	sun_apeeialkgkuxddgh.tif	612250.210802	612250.469395	612251.159429	7.840880e-01	32	none	NaN	NaN
110	7	68	11	bathroom	labelme_sfxiulhjbhlyiyt.tif	612251.929180	612252.187765	612252.877986	8.508189e-01	1	none	NaN	NaN
110	7	69	12	bathroom	sun_aapitsgbtktqubfy.tif	612253.647547	612253.906132	612254.596310	6.839917e-01	2	none	NaN	NaN
110	7	70	43	bathroom	sun_apjevzvycyhuqghb.tif	612255.365914	612255.624504	612256.314625	7.256985e-01	33	none	NaN	NaN
110	7	71	47	bathroom	sun_apynckhmoftszqoq.tif	612257.084280	612257.342873	612258.032976	8.007708e-01	37	37	612258.837598	1
110	7	72	34	bathroom	sun_alkosphxlxwjwgjd.tif	612259.611786	612259.870378	612260.560598	7.590639e-01	24	none	NaN	NaN
110	7	73	30	bathroom	sun_ajlawzvmubibwbpy.tif	612261.330155	612261.588745	612262.278750	7.173571e-01	20	none	NaN	NaN
110	7	74	56	bathroom	sun_awnqiikzaispgmwo.tif	612263.048526	612263.307113	612263.997153	6.589676e-01	46	none	NaN	NaN
110	7	75	36	bathroom	sun_ambriybtogmepttm.tif	612264.766892	612265.025486	612265.715674	8.174535e-01	26	none	NaN	NaN
110	7	76	46	bathroom	sun_apmqjbnwghzuhhzh.tif	612266.485261	612266.743857	612267.433889	6.673090e-01	36	none	NaN	NaN
110	7	77	14	bathroom	sun_abapwbhyhkfixyex.tif	612268.203631	612268.462222	612269.152397	7.757467e-01	4	none	NaN	NaN
110	7	78	19	bathroom	sun_aclfzgynxzxlbepz.tif	612269.922001	612270.180591	612270.870626	6.923330e-01	9	none	NaN	NaN
110	7	79	25	bathroom	sun_agyqfjcfkdcydepw.tif	612271.640369	612271.898959	612272.588990	7.006744e-01	15	none	NaN	NaN
110	7	80	13	bathroom	sun_aavhrsfjbserjtht.tif	612273.358740	612273.617317	612274.307339	7.256985e-01	3	none	NaN	NaN
110	7	81	60	bathroom	sun_azqyogdvyhahyram.tif	612275.068766	612275.327352	612276.017462	7.423812e-01	50	none	NaN	NaN
110	7	82	50	bathroom	sun_aspsyogrekjtfozg.tif	612276.787136	612277.045728	612277.735787	6.506262e-01	40	37	612278.669577	0
110	7	83	22	bathroom	sun_agguqiubmwhqqunb.tif	612279.439766	612279.698354	612280.388453	6.589676e-01	12	none	NaN	NaN
110	7	84	20	bathroom	sun_afcoljnjfoxjtgja.tif	612281.158131	612281.416725	612282.106909	8.257948e-01	10	none	NaN	NaN
110	7	85	18	bathroom	sun_acgyywnybuveqsro.tif	612282.876501	612283.135093	612283.825174	6.756503e-01	8	none	NaN	NaN
110	7	86	58	bathroom	sun_axxbkopsgyouuebh.tif	612284.594874	612284.853463	612285.543648	7.757467e-01	48	none	NaN	NaN
110	7	87	35	bathroom	sun_alotolagknyrgtsk.tif	612286.313231	612286.571829	612287.261982	7.256985e-01	25	none	NaN	NaN
110	7	88	44	bathroom	sun_apkruvsevgegsdwp.tif	612288.031604	612288.290198	612288.980218	7.006744e-01	34	none	NaN	NaN
110	7	89	48	bathroom	sun_aqrpegblszgcoujh.tif	612289.750002	612290.008565	612290.698659	7.840880e-01	38	none	NaN	NaN
110	7	90	45	bathroom	sun_apkxzenqapsujocq.tif	612291.468344	612291.726939	612292.416986	7.840880e-01	35	none	NaN	NaN
110	7	91	57	bathroom	sun_axldvoqbuvuggfmq.tif	612293.186712	612293.445320	612294.135306	7.090158e-01	47	39	612295.573559	1
110	7	92	51	bathroom	sun_atstyziqcmkahyxk.tif	612296.348179	612296.606774	612297.296892	7.173571e-01	41	none	NaN	NaN
110	7	93	31	bathroom	sun_akiytfaagpdsphgz.tif	612298.066547	612298.325141	612299.015233	7.924294e-01	21	none	NaN	NaN
110	7	94	29	bathroom	sun_ahqjwnzgolcaoidx.tif	612299.784917	612300.043515	612300.733701	8.257948e-01	19	none	NaN	NaN
110	7	95	54	bathroom	sun_auzqhkafidnkrwmo.tif	612301.503290	612301.761878	612302.452414	8.424776e-01	44	37	612303.493501	1
110	7	96	49	bathroom	sun_asfwthctfqerjvxr.tif	612304.264356	612304.522952	612305.213117	7.757467e-01	39	none	NaN	NaN
110	7	97	52	bathroom	sun_aunuadmjocsddsrl.tif	612305.982731	612306.241318	612306.931378	7.674053e-01	42	none	NaN	NaN
110	7	98	28	bathroom	sun_ahijqszoswveeyji.tif	612307.701101	612307.959685	612308.649704	6.839917e-01	18	none	NaN	NaN
110	7	99	21	bathroom	sun_aggnnqpdorgxpvce.tif	612309.419466	612309.678051	612310.368063	7.090158e-01	11	37	612313.709553	1
110	7	100	27	bathroom	sun_ahcvzmoyaycdoftf.tif	612314.482816	612314.741404	612315.431408	7.674053e-01	17	none	NaN	NaN
110	8	1	66	kitchen	sun_aapllqyqlykszopd.tif	612362.789006	612363.047592	612363.729310	6.756503e-01	56	none	NaN	NaN
110	8	2	91	kitchen	sun_ahljzhgcdpomplvg.tif	612364.499032	612364.757617	612365.439398	7.590639e-01	81	37	612367.021754	1
110	8	3	104	kitchen	sun_auticobqsbwgoppi.tif	612367.793960	612368.052554	612368.734435	8.508189e-01	94	none	NaN	NaN
110	8	4	109	kitchen	sun_aypmqwcualkenuoe.tif	612369.503989	612369.762581	612370.444397	7.757467e-01	99	none	NaN	NaN
110	8	5	81	kitchen	sun_aehawpgmrlhlvcow.tif	612371.214015	612371.472607	612372.154487	7.090158e-01	71	37	612372.693689	1
110	8	6	101	kitchen	sun_aqeaevwwwjoqhzvl.tif	612373.466246	612373.724835	612374.406536	7.256985e-01	91	none	NaN	NaN
110	8	7	85	kitchen	sun_afuyedyxivkhecmu.tif	612375.176272	612375.434862	612376.116558	8.257948e-01	75	none	NaN	NaN
110	8	8	83	kitchen	sun_aeqdocilnnpuvuhx.tif	612376.886306	612377.144895	612377.826649	6.923330e-01	73	none	NaN	NaN
110	8	9	80	kitchen	sun_aegoxogugdkwpmpj.tif	612378.596332	612378.854922	612379.536645	8.091121e-01	70	none	NaN	NaN
110	8	10	86	kitchen	sun_aggjlwcdjsjcaemh.tif	612380.306360	612380.564948	612381.246631	6.673090e-01	76	39	612382.125389	1
110	8	11	65	kitchen	sun_aamedkxepzlwuxes.tif	612382.900593	612383.159188	612383.840862	7.006744e-01	55	none	NaN	NaN
110	8	12	98	kitchen	sun_akchetnepxlcxhsu.tif	612384.610622	612384.869210	612385.551068	7.006744e-01	88	none	NaN	NaN
110	8	13	77	kitchen	sun_acxkpeoqbwcxfvip.tif	612386.320652	612386.579241	612387.260925	8.007708e-01	67	none	NaN	NaN
110	8	14	96	kitchen	sun_ajcbwwvdlsvjyzje.tif	612388.030672	612388.289263	612388.971047	8.257948e-01	86	none	NaN	NaN
110	8	15	84	kitchen	sun_aexklacwqwezaorf.tif	612389.740704	612389.999290	612390.681126	7.256985e-01	74	37	612391.845708	0
110	8	16	79	kitchen	sun_admlmbcdswaszruo.tif	612392.618552	612392.877145	612393.558857	7.507226e-01	69	none	NaN	NaN
110	8	17	89	kitchen	sun_agzzivivdpnawacl.tif	612394.328583	612394.587173	612395.268896	8.424776e-01	79	37	612396.517652	1
110	8	18	92	kitchen	sun_ahpczsiumwwocjkv.tif	612397.289846	612397.548443	612398.230154	8.424776e-01	82	none	NaN	NaN
110	8	19	93	kitchen	sun_ahspylgoovwmwvgk.tif	612398.999877	612399.258463	612399.940264	7.757467e-01	83	37	612401.029523	0
110	8	20	87	kitchen	sun_agorklincwxrdtga.tif	612401.802652	612402.061243	612402.743036	7.840880e-01	77	37	612403.797724	1
110	8	21	68	kitchen	sun_aaxxjlsuzvqlgylf.tif	612404.572064	612404.830651	612405.512360	6.839917e-01	58	none	NaN	NaN
110	8	22	76	kitchen	sun_acwjdupvyjsugpay.tif	612406.282090	612406.540686	612407.222425	6.589676e-01	66	none	NaN	NaN
110	8	23	67	kitchen	sun_aarfiyshqohlwkmo.tif	612407.992118	612408.250708	612408.932369	6.589676e-01	57	none	NaN	NaN
110	8	24	97	kitchen	sun_ajkqhtgcbgpcwrwn.tif	612409.693808	612409.952390	612410.634262	7.507226e-01	87	none	NaN	NaN
110	8	25	110	kitchen	sun_azmutvzbxypaceni.tif	612411.403830	612411.662418	612412.344142	7.173571e-01	100	none	NaN	NaN
110	8	26	105	kitchen	sun_avszsnwsbuqfgzbn.tif	612413.113864	612413.372447	612414.054308	7.840880e-01	95	none	NaN	NaN
110	8	27	70	kitchen	sun_abdxkyyxwfskuaqb.tif	612414.823886	612415.082477	612415.764304	8.508189e-01	60	none	NaN	NaN
110	8	28	69	kitchen	sun_abdenxonkemggwsq.tif	612416.533917	612416.792502	612417.474259	7.507226e-01	59	none	NaN	NaN
110	8	29	64	kitchen	sun_aadbddgrdsjugojn.tif	612418.243946	612418.502536	612419.184242	8.424776e-01	54	none	NaN	NaN
110	8	30	72	kitchen	sun_abpwyqmlzafvklqo.tif	612419.953966	612420.212559	612420.894416	7.674053e-01	62	none	NaN	NaN
110	8	31	71	kitchen	sun_abftihopvusyfakt.tif	612421.663995	612421.922587	612422.604306	7.590639e-01	61	none	NaN	NaN
110	8	32	108	kitchen	sun_aymvwlarqodbwuoc.tif	612423.374025	612423.632611	612424.314275	8.341362e-01	98	none	NaN	NaN
110	8	33	102	kitchen	sun_auaiucuqpdausiva.tif	612425.084054	612425.342641	612426.024377	7.340399e-01	92	none	NaN	NaN
110	8	34	75	kitchen	sun_acgtpgfybqjmzeyw.tif	612426.794079	612427.052672	612427.734411	7.924294e-01	65	none	NaN	NaN
110	8	35	100	kitchen	sun_amjjdeyrggfqgmom.tif	612428.504106	612428.762698	612429.444530	8.257948e-01	90	none	NaN	NaN
110	8	36	74	kitchen	sun_acfmftudsenhrfhy.tif	612430.214131	612430.472721	612431.154594	7.674053e-01	64	none	NaN	NaN
110	8	37	73	kitchen	sun_abrcnpqqhmjwekyf.tif	612431.924163	612432.182756	612432.864598	8.007708e-01	63	none	NaN	NaN
110	8	38	94	kitchen	sun_ahywdevtimnqcsln.tif	612433.634188	612433.892776	612434.574541	8.174535e-01	84	none	NaN	NaN
110	8	39	106	kitchen	sun_awcpdzzznmweyyhv.tif	612435.344216	612435.602811	612436.284678	6.923330e-01	96	none	NaN	NaN
110	8	40	103	kitchen	sun_aunzlwrbjumxhwdj.tif	612437.054242	612437.312828	612437.994655	7.173571e-01	93	none	NaN	NaN
110	8	41	99	kitchen	sun_akcjzhbbjlbogpdi.tif	612438.764270	612439.022859	612439.704596	7.423812e-01	89	none	NaN	NaN
110	8	42	63	kitchen	labelme_rykdqxenmhulbdn.tif	612440.474301	612440.732884	612441.414630	8.257948e-01	53	none	NaN	NaN
110	8	43	61	kitchen	labelme_brsyyvweiuaazfr.tif	612442.184321	612442.442918	612443.124614	7.507226e-01	51	none	NaN	NaN
110	8	44	88	kitchen	sun_agubuxuukhzyzpdp.tif	612443.894347	612444.152945	612444.834689	7.590639e-01	78	none	NaN	NaN
110	8	45	95	kitchen	sun_aixorpehvfykdynp.tif	612445.604386	612445.862965	612446.544663	7.090158e-01	85	none	NaN	NaN
110	8	46	62	kitchen	labelme_kxvouciolcpqplr.tif	612447.314409	612447.572998	612448.254776	7.840880e-01	52	none	NaN	NaN
110	8	47	78	kitchen	sun_adgqasybjyktddhj.tif	612449.024439	612449.283024	612449.964695	8.424776e-01	68	none	NaN	NaN
110	8	48	82	kitchen	sun_aenotlpyftoioydp.tif	612450.726121	612450.984714	612451.666505	6.756503e-01	72	163	612452.781276	0
110	8	49	90	kitchen	sun_ahdycvpopffkzzsu.tif	612453.553924	612453.812514	612454.494280	7.423812e-01	80	none	NaN	NaN
110	8	50	107	kitchen	sun_axyyrmzcupyhlivc.tif	612455.263950	612455.522538	612456.204218	6.839917e-01	97	none	NaN	NaN
110	8	51	109	kitchen	sun_aypmqwcualkenuoe.tif	612456.973976	612457.232564	612457.914392	7.757467e-01	99	none	NaN	NaN
110	8	52	75	kitchen	sun_acgtpgfybqjmzeyw.tif	612458.684008	612458.942595	612459.624280	7.173571e-01	65	none	NaN	NaN
110	8	53	76	kitchen	sun_acwjdupvyjsugpay.tif	612460.394032	612460.652624	612461.334290	6.756503e-01	66	none	NaN	NaN
110	8	54	66	kitchen	sun_aapllqyqlykszopd.tif	612462.095718	612462.354309	612463.036151	6.506262e-01	56	none	NaN	NaN
110	8	55	107	kitchen	sun_axyyrmzcupyhlivc.tif	612463.805747	612464.064332	612464.746034	7.006744e-01	97	37	612465.573729	1
110	8	56	64	kitchen	sun_aadbddgrdsjugojn.tif	612466.349932	612466.608518	612467.290208	8.257948e-01	54	37	612467.789617	1
110	8	57	101	kitchen	sun_aqeaevwwwjoqhzvl.tif	612468.560455	612468.819046	612469.500904	6.923330e-01	91	none	NaN	NaN
110	8	58	79	kitchen	sun_admlmbcdswaszruo.tif	612470.270482	612470.529078	612471.210855	7.256985e-01	69	none	NaN	NaN
110	8	59	61	kitchen	labelme_brsyyvweiuaazfr.tif	612471.972170	612472.230761	612472.912487	7.590639e-01	51	none	NaN	NaN
110	8	60	92	kitchen	sun_ahpczsiumwwocjkv.tif	612473.682196	612473.940787	612474.622583	7.590639e-01	82	none	NaN	NaN
110	8	61	63	kitchen	labelme_rykdqxenmhulbdn.tif	612475.392225	612475.650817	612476.332545	7.340399e-01	53	none	NaN	NaN
110	8	62	93	kitchen	sun_ahspylgoovwmwvgk.tif	612477.102249	612477.360841	612478.042698	7.256985e-01	83	none	NaN	NaN
110	8	63	106	kitchen	sun_awcpdzzznmweyyhv.tif	612478.812283	612479.070869	612479.752692	6.923330e-01	96	none	NaN	NaN
110	8	64	83	kitchen	sun_aeqdocilnnpuvuhx.tif	612480.522305	612480.780896	612481.462710	6.839917e-01	73	none	NaN	NaN
110	8	65	70	kitchen	sun_abdxkyyxwfskuaqb.tif	612482.232332	612482.490943	612483.172603	7.006744e-01	60	none	NaN	NaN
110	8	66	84	kitchen	sun_aexklacwqwezaorf.tif	612483.942365	612484.200952	612484.882820	7.757467e-01	74	none	NaN	NaN
110	8	67	78	kitchen	sun_adgqasybjyktddhj.tif	612485.652387	612485.910983	612486.592794	7.924294e-01	68	none	NaN	NaN
110	8	68	77	kitchen	sun_acxkpeoqbwcxfvip.tif	612487.362410	612487.621004	612488.302879	7.840880e-01	67	none	NaN	NaN
110	8	69	74	kitchen	sun_acfmftudsenhrfhy.tif	612489.072442	612489.331030	612490.012704	8.091121e-01	64	none	NaN	NaN
110	8	70	94	kitchen	sun_ahywdevtimnqcsln.tif	612490.774128	612491.032717	612491.714447	7.090158e-01	84	37	612492.429660	0
110	8	71	95	kitchen	sun_aixorpehvfykdynp.tif	612493.201538	612493.460129	612494.141866	6.673090e-01	85	39	612495.557687	1
110	8	72	73	kitchen	sun_abrcnpqqhmjwekyf.tif	612496.329633	612496.588227	612497.269890	8.007708e-01	63	37	612499.805662	1
110	8	73	88	kitchen	sun_agubuxuukhzyzpdp.tif	612500.583850	612500.842438	612501.524219	8.174535e-01	78	none	NaN	NaN
110	8	74	98	kitchen	sun_akchetnepxlcxhsu.tif	612502.293874	612502.552467	612503.234165	8.007708e-01	88	none	NaN	NaN
110	8	75	80	kitchen	sun_aegoxogugdkwpmpj.tif	612504.003907	612504.262498	612504.944251	6.673090e-01	70	37	612507.269559	0
110	8	76	65	kitchen	sun_aamedkxepzlwuxes.tif	612508.041234	612508.299827	612508.981688	7.674053e-01	55	none	NaN	NaN
110	8	77	103	kitchen	sun_aunzlwrbjumxhwdj.tif	612509.751264	612510.009855	612510.691665	7.423812e-01	93	none	NaN	NaN
110	8	78	86	kitchen	sun_aggjlwcdjsjcaemh.tif	612511.461291	612511.719879	612512.401662	8.091121e-01	76	none	NaN	NaN
110	8	79	71	kitchen	sun_abftihopvusyfakt.tif	612513.171315	612513.429909	612514.111608	7.423812e-01	61	none	NaN	NaN
110	8	80	81	kitchen	sun_aehawpgmrlhlvcow.tif	612514.873005	612515.131595	612515.813465	8.341362e-01	71	none	NaN	NaN
110	8	81	96	kitchen	sun_ajcbwwvdlsvjyzje.tif	612516.583031	612516.841622	612517.523323	6.589676e-01	86	none	NaN	NaN
110	8	82	102	kitchen	sun_auaiucuqpdausiva.tif	612518.293059	612518.551652	612519.233413	6.923330e-01	92	none	NaN	NaN
110	8	83	62	kitchen	labelme_kxvouciolcpqplr.tif	612520.003086	612520.261681	612520.943392	7.340399e-01	52	none	NaN	NaN
110	8	84	108	kitchen	sun_aymvwlarqodbwuoc.tif	612521.713114	612521.971707	612522.653504	6.589676e-01	98	none	NaN	NaN
110	8	85	72	kitchen	sun_abpwyqmlzafvklqo.tif	612523.423142	612523.681735	612524.363492	8.174535e-01	62	none	NaN	NaN
110	8	86	87	kitchen	sun_agorklincwxrdtga.tif	612525.133167	612525.391753	612526.073632	7.340399e-01	77	none	NaN	NaN
110	8	87	90	kitchen	sun_ahdycvpopffkzzsu.tif	612526.843197	612527.101787	612527.783659	7.924294e-01	80	none	NaN	NaN
110	8	88	82	kitchen	sun_aenotlpyftoioydp.tif	612528.553223	612528.811813	612529.493687	6.839917e-01	72	none	NaN	NaN
110	8	89	100	kitchen	sun_amjjdeyrggfqgmom.tif	612530.263253	612530.521844	612531.203519	7.173571e-01	90	39	612532.349617	1
110	8	90	67	kitchen	sun_aarfiyshqohlwkmo.tif	612533.124420	612533.383009	612534.064880	7.090158e-01	57	none	NaN	NaN
110	8	91	104	kitchen	sun_auticobqsbwgoppi.tif	612534.834448	612535.093034	612535.774868	8.091121e-01	94	none	NaN	NaN
110	8	92	110	kitchen	sun_azmutvzbxypaceni.tif	612536.544475	612536.803064	612537.484728	7.674053e-01	100	none	NaN	NaN
110	8	93	105	kitchen	sun_avszsnwsbuqfgzbn.tif	612538.254502	612538.513089	612539.194865	8.174535e-01	95	none	NaN	NaN
110	8	94	97	kitchen	sun_ajkqhtgcbgpcwrwn.tif	612539.964531	612540.223120	612540.904802	8.341362e-01	87	none	NaN	NaN
110	8	95	85	kitchen	sun_afuyedyxivkhecmu.tif	612541.674560	612541.933145	612542.614955	8.341362e-01	75	none	NaN	NaN
110	8	96	89	kitchen	sun_agzzivivdpnawacl.tif	612543.384583	612543.643168	612544.324887	7.924294e-01	79	none	NaN	NaN
110	8	97	91	kitchen	sun_ahljzhgcdpomplvg.tif	612545.094613	612545.353203	612546.034952	6.673090e-01	81	none	NaN	NaN
110	8	98	99	kitchen	sun_akcjzhbbjlbogpdi.tif	612546.804640	612547.063228	612547.745115	6.506262e-01	89	none	NaN	NaN
110	8	99	68	kitchen	sun_aaxxjlsuzvqlgylf.tif	612548.514667	612548.773259	612549.454962	6.756503e-01	58	none	NaN	NaN
110	8	100	69	kitchen	sun_abdenxonkemggwsq.tif	612550.224695	612550.483285	612551.165158	6.506262e-01	59	none	NaN	NaN
110	9	1	11	bathroom	labelme_sfxiulhjbhlyiyt.tif	612555.972055	612556.230642	612556.879075	7.757467e-01	1	none	NaN	NaN
110	9	2	24	bathroom	sun_agrwbmhcpmfuwmsg.tif	612557.648718	612557.907308	612558.555712	8.508189e-01	14	none	NaN	NaN
110	9	3	60	bathroom	sun_azqyogdvyhahyram.tif	612559.325375	612559.583960	612560.232463	7.006744e-01	50	none	NaN	NaN
110	9	4	19	bathroom	sun_aclfzgynxzxlbepz.tif	612561.002037	612561.260623	612561.908991	7.924294e-01	9	none	NaN	NaN
110	9	5	14	bathroom	sun_abapwbhyhkfixyex.tif	612562.670356	612562.928949	612563.577413	8.174535e-01	4	none	NaN	NaN
110	9	6	15	bathroom	sun_abjtwfukuwddzted.tif	612564.347019	612564.605607	612565.254016	6.923330e-01	5	39	612566.917757	1
110	9	7	21	bathroom	sun_aggnnqpdorgxpvce.tif	612567.692002	612567.950592	612568.598995	7.507226e-01	11	none	NaN	NaN
110	9	8	38	bathroom	sun_anhioqovhscjqqwb.tif	612569.368663	612569.627250	612570.275621	6.506262e-01	28	none	NaN	NaN
110	9	9	44	bathroom	sun_apkruvsevgegsdwp.tif	612571.045320	612571.303913	612571.952294	6.589676e-01	34	none	NaN	NaN
110	9	10	56	bathroom	sun_awnqiikzaispgmwo.tif	612572.721983	612572.980571	612573.629064	6.589676e-01	46	none	NaN	NaN
110	9	11	16	bathroom	sun_acduarbnmmoglmiv.tif	612574.398637	612574.657231	612575.305668	8.257948e-01	6	none	NaN	NaN
110	9	12	45	bathroom	sun_apkxzenqapsujocq.tif	612576.075301	612576.333893	612576.982363	8.007708e-01	35	none	NaN	NaN
110	9	13	18	bathroom	sun_acgyywnybuveqsro.tif	612577.751967	612578.010558	612578.659161	8.424776e-01	8	none	NaN	NaN
110	9	14	20	bathroom	sun_afcoljnjfoxjtgja.tif	612579.428629	612579.687217	612580.335732	7.757467e-01	10	37	612581.117540	1
110	9	15	49	bathroom	sun_asfwthctfqerjvxr.tif	612581.889396	612582.147987	612582.796329	8.091121e-01	39	none	NaN	NaN
110	9	16	31	bathroom	sun_akiytfaagpdsphgz.tif	612583.566059	612583.824650	612584.473137	7.590639e-01	21	none	NaN	NaN
110	9	17	17	bathroom	sun_acegryoqftbzowsg.tif	612585.242720	612585.501311	612586.149671	7.423812e-01	7	none	NaN	NaN
110	9	18	54	bathroom	sun_auzqhkafidnkrwmo.tif	612586.919382	612587.177971	612587.826349	8.508189e-01	44	none	NaN	NaN
110	9	19	50	bathroom	sun_aspsyogrekjtfozg.tif	612588.596044	612588.854632	612589.502975	8.174535e-01	40	none	NaN	NaN
110	9	20	34	bathroom	sun_alkosphxlxwjwgjd.tif	612590.272702	612590.531297	612591.179606	7.340399e-01	24	37	612592.285339	1
110	9	21	53	bathroom	sun_ausgutylgojavyoq.tif	612593.058796	612593.317391	612593.965803	6.839917e-01	43	none	NaN	NaN
110	9	22	13	bathroom	sun_aavhrsfjbserjtht.tif	612594.735459	612594.994050	612595.642522	6.673090e-01	3	none	NaN	NaN
110	9	23	52	bathroom	sun_aunuadmjocsddsrl.tif	612596.412117	612596.670704	612597.319155	6.506262e-01	42	none	NaN	NaN
110	9	24	12	bathroom	sun_aapitsgbtktqubfy.tif	612598.088781	612598.347367	612598.995786	7.590639e-01	2	none	NaN	NaN
110	9	25	39	bathroom	sun_anryaplzeujmzfkd.tif	612599.765441	612600.024032	612600.672371	7.340399e-01	29	none	NaN	NaN
110	9	26	29	bathroom	sun_ahqjwnzgolcaoidx.tif	612601.442106	612601.700693	612602.349208	7.090158e-01	19	none	NaN	NaN
110	9	27	26	bathroom	sun_ahaulkltgpkeeemi.tif	612603.118760	612603.377354	612604.025652	6.673090e-01	16	37	612604.933551	1
110	9	28	51	bathroom	sun_atstyziqcmkahyxk.tif	612605.704658	612605.963243	612606.611634	7.090158e-01	41	none	NaN	NaN
110	9	29	41	bathroom	sun_aoybiabnpadelefl.tif	612607.381320	612607.639908	612608.288338	7.840880e-01	31	none	NaN	NaN
110	9	30	28	bathroom	sun_ahijqszoswveeyji.tif	612609.057979	612609.316570	612609.964928	7.423812e-01	18	none	NaN	NaN
110	9	31	57	bathroom	sun_axldvoqbuvuggfmq.tif	612610.734641	612610.993235	612611.641653	7.924294e-01	47	none	NaN	NaN
110	9	32	32	bathroom	sun_aleqenyvunhactkl.tif	612612.411303	612612.669894	612613.318408	6.923330e-01	22	39	612614.829549	1
110	9	33	25	bathroom	sun_agyqfjcfkdcydepw.tif	612615.606133	612615.864727	612616.513085	8.007708e-01	15	none	NaN	NaN
110	9	34	30	bathroom	sun_ajlawzvmubibwbpy.tif	612617.282793	612617.541384	612618.189702	8.257948e-01	20	none	NaN	NaN
110	9	35	58	bathroom	sun_axxbkopsgyouuebh.tif	612618.959453	612619.218045	612619.866367	7.507226e-01	48	none	NaN	NaN
110	9	36	48	bathroom	sun_aqrpegblszgcoujh.tif	612620.636116	612620.894705	612621.543092	7.674053e-01	38	none	NaN	NaN
110	9	37	36	bathroom	sun_ambriybtogmepttm.tif	612622.312777	612622.571369	612623.219839	8.257948e-01	26	none	NaN	NaN
110	9	38	33	bathroom	sun_aljolscmmzydegqp.tif	612623.989440	612624.248034	612624.896486	7.674053e-01	23	none	NaN	NaN
110	9	39	42	bathroom	sun_apeeialkgkuxddgh.tif	612625.666125	612625.924693	612626.573118	7.840880e-01	32	none	NaN	NaN
110	9	40	55	bathroom	sun_avhrdrntsqrjzccq.tif	612627.342759	612627.601353	612628.249801	6.756503e-01	45	39	612631.309873	0
110	9	41	46	bathroom	sun_apmqjbnwghzuhhzh.tif	612632.080791	612632.339377	612632.987723	6.839917e-01	36	none	NaN	NaN
110	9	42	22	bathroom	sun_agguqiubmwhqqunb.tif	612633.757451	612634.016039	612634.664537	6.589676e-01	12	none	NaN	NaN
110	9	43	27	bathroom	sun_ahcvzmoyaycdoftf.tif	612635.434115	612635.692699	612636.341163	6.756503e-01	17	none	NaN	NaN
110	9	44	47	bathroom	sun_apynckhmoftszqoq.tif	612637.110771	612637.369362	612638.017692	6.839917e-01	37	none	NaN	NaN
110	9	45	59	bathroom	sun_axyrejkiiaqiurjk.tif	612638.787430	612639.046025	612639.694489	7.423812e-01	49	none	NaN	NaN
110	9	46	35	bathroom	sun_alotolagknyrgtsk.tif	612640.464098	612640.722686	612641.371014	6.673090e-01	25	37	612642.573667	1
110	9	47	40	bathroom	sun_aofnryafpsjimzsb.tif	612643.350286	612643.608875	612644.257352	7.090158e-01	30	39	612647.221514	1
110	9	48	23	bathroom	sun_aghyqhbptboemmoq.tif	612647.996558	612648.255146	612648.903513	7.840880e-01	13	none	NaN	NaN
110	9	49	43	bathroom	sun_apjevzvycyhuqghb.tif	612649.673221	612649.931806	612650.580153	6.673090e-01	33	none	NaN	NaN
110	9	50	37	bathroom	sun_amzlamotzwfkwjco.tif	612651.349883	612651.608468	612652.256987	8.091121e-01	27	none	NaN	NaN
