subject	block	trial	texture	category	image	trialOnset	itiOnset	trialEnd	iti	EEGtrigger	responseKey	responseTime	accuracy
111	1	1	13	bathroom	sun_aavhrsfjbserjtht.tif	589637.359365	589637.617949	589638.358222	7.507298e-01	3	none	NaN	NaN
111	1	2	49	bathroom	sun_asfwthctfqerjvxr.tif	589639.127785	589639.386373	589640.126644	8.424856e-01	39	none	NaN	NaN
111	1	3	25	bathroom	sun_agyqfjcfkdcydepw.tif	589640.896201	589641.154797	589641.895006	6.589739e-01	15	39	589646.896276	1
111	1	4	38	bathroom	sun_anhioqovhscjqqwb.tif	589647.669585	589647.928173	589648.668486	7.840955e-01	28	none	NaN	NaN
111	1	5	37	bathroom	sun_amzlamotzwfkwjco.tif	589649.437995	589649.696589	589650.436942	7.173640e-01	27	none	NaN	NaN
111	1	6	16	bathroom	sun_acduarbnmmoglmiv.tif	589651.206418	589651.465012	589652.205076	6.923397e-01	6	none	NaN	NaN
111	1	7	41	bathroom	sun_aoybiabnpadelefl.tif	589652.974837	589653.233427	589653.973640	6.923397e-01	31	39	589660.552375	1
111	1	8	55	bathroom	sun_avhrdrntsqrjzccq.tif	589661.324774	589661.583363	589662.323550	6.923397e-01	45	none	NaN	NaN
111	1	9	60	bathroom	sun_azqyogdvyhahyram.tif	589663.093193	589663.351782	589664.092000	7.423883e-01	50	37	589666.304356	1
111	1	10	29	bathroom	sun_ahqjwnzgolcaoidx.tif	589667.080476	589667.339065	589668.079181	7.340469e-01	19	none	NaN	NaN
111	1	11	15	bathroom	sun_abjtwfukuwddzted.tif	589668.848896	589669.107485	589669.847928	8.341442e-01	5	37	589670.864387	1
111	1	12	39	bathroom	sun_anryaplzeujmzfkd.tif	589671.643329	589671.901921	589672.642087	6.756568e-01	29	none	NaN	NaN
111	1	13	17	bathroom	sun_acegryoqftbzowsg.tif	589673.411748	589673.670339	589674.410516	8.091199e-01	7	none	NaN	NaN
111	1	14	30	bathroom	sun_ajlawzvmubibwbpy.tif	589675.180168	589675.438755	589676.178835	8.174613e-01	20	none	NaN	NaN
111	1	15	23	bathroom	sun_aghyqhbptboemmoq.tif	589676.948584	589677.207179	589677.947388	7.840955e-01	13	none	NaN	NaN
111	1	16	53	bathroom	sun_ausgutylgojavyoq.tif	589678.717005	589678.975592	589679.715798	7.507298e-01	43	none	NaN	NaN
111	1	17	59	bathroom	sun_axyrejkiiaqiurjk.tif	589680.485419	589680.744013	589681.484139	7.423883e-01	49	none	NaN	NaN
111	1	18	58	bathroom	sun_axxbkopsgyouuebh.tif	589682.253842	589682.512435	589683.252655	7.340469e-01	48	none	NaN	NaN
111	1	19	14	bathroom	sun_abapwbhyhkfixyex.tif	589684.022259	589684.280849	589685.020908	7.090226e-01	4	none	NaN	NaN
111	1	20	33	bathroom	sun_aljolscmmzydegqp.tif	589685.790677	589686.049262	589686.789503	6.923397e-01	23	none	NaN	NaN
111	1	21	46	bathroom	sun_apmqjbnwghzuhhzh.tif	589687.559097	589687.817686	589688.557807	7.340469e-01	36	39	589690.696465	1
111	1	22	18	bathroom	sun_acgyywnybuveqsro.tif	589691.471305	589691.729894	589692.470058	6.756568e-01	8	none	NaN	NaN
111	1	23	19	bathroom	sun_aclfzgynxzxlbepz.tif	589693.239725	589693.498315	589694.238481	7.757541e-01	9	none	NaN	NaN
111	1	24	11	bathroom	labelme_sfxiulhjbhlyiyt.tif	589695.008140	589695.266733	589696.006985	6.673154e-01	1	39	589697.912618	1
111	1	25	27	bathroom	sun_ahcvzmoyaycdoftf.tif	589698.686784	589698.945375	589699.685507	8.258028e-01	17	none	NaN	NaN
111	1	26	21	bathroom	sun_aggnnqpdorgxpvce.tif	589700.455205	589700.713789	589701.453966	7.590712e-01	11	none	NaN	NaN
111	1	27	42	bathroom	sun_apeeialkgkuxddgh.tif	589702.223623	589702.482205	589703.222487	7.590712e-01	32	none	NaN	NaN
111	1	28	56	bathroom	sun_awnqiikzaispgmwo.tif	589703.992040	589704.250634	589704.990705	8.174613e-01	46	none	NaN	NaN
111	1	29	44	bathroom	sun_apkruvsevgegsdwp.tif	589705.760456	589706.019050	589706.759184	7.423883e-01	34	none	NaN	NaN
111	1	30	20	bathroom	sun_afcoljnjfoxjtgja.tif	589707.528884	589707.787472	589708.527689	7.173640e-01	10	none	NaN	NaN
111	1	31	28	bathroom	sun_ahijqszoswveeyji.tif	589709.297299	589709.555890	589710.295968	8.424856e-01	18	none	NaN	NaN
111	1	32	26	bathroom	sun_ahaulkltgpkeeemi.tif	589711.065716	589711.324300	589712.064505	7.674127e-01	16	none	NaN	NaN
111	1	33	22	bathroom	sun_agguqiubmwhqqunb.tif	589712.834136	589713.092729	589713.832820	6.923397e-01	12	none	NaN	NaN
111	1	34	47	bathroom	sun_apynckhmoftszqoq.tif	589714.602553	589714.861144	589715.601302	7.590712e-01	37	none	NaN	NaN
111	1	35	45	bathroom	sun_apkxzenqapsujocq.tif	589716.370975	589716.629565	589717.369731	8.174613e-01	35	none	NaN	NaN
111	1	36	34	bathroom	sun_alkosphxlxwjwgjd.tif	589718.139390	589718.397984	589719.138103	8.341442e-01	24	none	NaN	NaN
111	1	37	12	bathroom	sun_aapitsgbtktqubfy.tif	589719.907815	589720.166399	589720.906618	8.091199e-01	2	none	NaN	NaN
111	1	38	52	bathroom	sun_aunuadmjocsddsrl.tif	589721.676229	589721.934814	589722.675046	7.090226e-01	42	none	NaN	NaN
111	1	39	50	bathroom	sun_aspsyogrekjtfozg.tif	589723.444648	589723.703239	589724.443408	7.924370e-01	40	none	NaN	NaN
111	1	40	54	bathroom	sun_auzqhkafidnkrwmo.tif	589725.213066	589725.471656	589726.211758	6.506325e-01	44	none	NaN	NaN
111	1	41	31	bathroom	sun_akiytfaagpdsphgz.tif	589726.981484	589727.240077	589727.980173	6.589739e-01	21	39	589729.984381	1
111	1	42	48	bathroom	sun_aqrpegblszgcoujh.tif	589730.760227	589731.018817	589731.758930	8.091199e-01	38	none	NaN	NaN
111	1	43	35	bathroom	sun_alotolagknyrgtsk.tif	589732.520304	589732.778892	589733.519049	8.007784e-01	25	none	NaN	NaN
111	1	44	24	bathroom	sun_agrwbmhcpmfuwmsg.tif	589734.288724	589734.547319	589735.287511	7.257055e-01	14	none	NaN	NaN
111	1	45	40	bathroom	sun_aofnryafpsjimzsb.tif	589736.057138	589736.315729	589737.055806	7.840955e-01	30	none	NaN	NaN
111	1	46	36	bathroom	sun_ambriybtogmepttm.tif	589737.825561	589738.084148	589738.824680	7.757541e-01	26	none	NaN	NaN
111	1	47	57	bathroom	sun_axldvoqbuvuggfmq.tif	589739.593981	589739.852568	589740.592791	8.258028e-01	47	none	NaN	NaN
111	1	48	43	bathroom	sun_apjevzvycyhuqghb.tif	589741.362393	589741.620985	589742.361171	6.506325e-01	33	none	NaN	NaN
111	1	49	32	bathroom	sun_aleqenyvunhactkl.tif	589743.130818	589743.389406	589744.129611	7.006811e-01	22	none	NaN	NaN
111	1	50	51	bathroom	sun_atstyziqcmkahyxk.tif	589744.899236	589745.157824	589745.898038	8.007784e-01	41	none	NaN	NaN
111	1	51	59	bathroom	sun_axyrejkiiaqiurjk.tif	589746.667655	589746.926245	589747.666399	7.006811e-01	49	none	NaN	NaN
111	1	52	11	bathroom	labelme_sfxiulhjbhlyiyt.tif	589748.436070	589748.694662	589749.434797	7.340469e-01	1	none	NaN	NaN
111	1	53	25	bathroom	sun_agyqfjcfkdcydepw.tif	589750.204487	589750.463083	589751.203220	7.507298e-01	15	none	NaN	NaN
111	1	54	16	bathroom	sun_acduarbnmmoglmiv.tif	589751.972908	589752.231496	589752.971662	7.173640e-01	6	none	NaN	NaN
111	1	55	21	bathroom	sun_aggnnqpdorgxpvce.tif	589753.741328	589753.999917	589754.740174	7.590712e-01	11	none	NaN	NaN
111	1	56	51	bathroom	sun_atstyziqcmkahyxk.tif	589755.509744	589755.768336	589756.508566	7.924370e-01	41	none	NaN	NaN
111	1	57	32	bathroom	sun_aleqenyvunhactkl.tif	589757.278167	589757.536752	589758.276843	7.924370e-01	22	none	NaN	NaN
111	1	58	33	bathroom	sun_aljolscmmzydegqp.tif	589759.046579	589759.305170	589760.045275	7.674127e-01	23	none	NaN	NaN
111	1	59	18	bathroom	sun_acgyywnybuveqsro.tif	589760.815001	589761.073585	589761.813779	7.090226e-01	8	none	NaN	NaN
111	1	60	36	bathroom	sun_ambriybtogmepttm.tif	589762.583418	589762.842009	589763.582104	7.840955e-01	26	none	NaN	NaN
111	1	61	13	bathroom	sun_aavhrsfjbserjtht.tif	589764.351834	589764.610429	589765.350560	8.508271e-01	3	none	NaN	NaN
111	1	62	56	bathroom	sun_awnqiikzaispgmwo.tif	589766.120256	589766.378846	589767.118940	7.757541e-01	46	37	589768.712429	0
111	1	63	14	bathroom	sun_abapwbhyhkfixyex.tif	589769.490259	589769.748853	589770.488945	6.589739e-01	4	none	NaN	NaN
111	1	64	45	bathroom	sun_apkxzenqapsujocq.tif	589771.258687	589771.517272	589772.257501	8.091199e-01	35	none	NaN	NaN
111	1	65	38	bathroom	sun_anhioqovhscjqqwb.tif	589773.027101	589773.285684	589774.025959	8.258028e-01	28	39	589775.416388	0
111	1	66	44	bathroom	sun_apkruvsevgegsdwp.tif	589776.188571	589776.447151	589777.187255	8.007784e-01	34	37	589778.008304	1
111	1	67	35	bathroom	sun_alotolagknyrgtsk.tif	589778.782802	589779.041392	589779.781568	6.673154e-01	25	none	NaN	NaN
111	1	68	55	bathroom	sun_avhrdrntsqrjzccq.tif	589780.551217	589780.809812	589781.549890	6.756568e-01	45	39	589783.184493	1
111	1	69	22	bathroom	sun_agguqiubmwhqqunb.tif	589783.962931	589784.221521	589784.961716	6.839982e-01	12	none	NaN	NaN
111	1	70	24	bathroom	sun_agrwbmhcpmfuwmsg.tif	589785.731349	589785.989941	589786.730077	7.423883e-01	14	none	NaN	NaN
111	1	71	47	bathroom	sun_apynckhmoftszqoq.tif	589787.499772	589787.758359	589788.498718	8.341442e-01	37	none	NaN	NaN
111	1	72	53	bathroom	sun_ausgutylgojavyoq.tif	589789.268189	589789.526775	589790.266854	7.590712e-01	43	none	NaN	NaN
111	1	73	15	bathroom	sun_abjtwfukuwddzted.tif	589791.036606	589791.295191	589792.035404	8.007784e-01	5	none	NaN	NaN
111	1	74	28	bathroom	sun_ahijqszoswveeyji.tif	589792.805026	589793.063614	589793.803822	7.257055e-01	18	none	NaN	NaN
111	1	75	26	bathroom	sun_ahaulkltgpkeeemi.tif	589794.573446	589794.832035	589795.572197	8.174613e-01	16	37	589796.392544	1
111	1	76	58	bathroom	sun_axxbkopsgyouuebh.tif	589797.167679	589797.426269	589798.166428	6.839982e-01	48	none	NaN	NaN
111	1	77	17	bathroom	sun_acegryoqftbzowsg.tif	589798.936096	589799.194688	589799.934762	6.839982e-01	7	39	589801.240213	0
111	1	78	54	bathroom	sun_auzqhkafidnkrwmo.tif	589802.014150	589802.272737	589803.012881	8.341442e-01	44	none	NaN	NaN
111	1	79	30	bathroom	sun_ajlawzvmubibwbpy.tif	589803.782568	589804.041156	589804.781331	7.173640e-01	20	none	NaN	NaN
111	1	80	19	bathroom	sun_aclfzgynxzxlbepz.tif	589805.550985	589805.809573	589806.549664	8.258028e-01	9	none	NaN	NaN
111	1	81	60	bathroom	sun_azqyogdvyhahyram.tif	589807.319407	589807.577996	589808.318222	7.257055e-01	50	none	NaN	NaN
111	1	82	50	bathroom	sun_aspsyogrekjtfozg.tif	589809.087824	589809.346411	589810.086550	7.757541e-01	40	none	NaN	NaN
111	1	83	42	bathroom	sun_apeeialkgkuxddgh.tif	589810.856238	589811.114826	589811.855034	7.006811e-01	32	none	NaN	NaN
111	1	84	49	bathroom	sun_asfwthctfqerjvxr.tif	589812.624657	589812.883251	589813.623495	7.674127e-01	39	none	NaN	NaN
111	1	85	27	bathroom	sun_ahcvzmoyaycdoftf.tif	589814.393075	589814.651672	589815.391814	7.006811e-01	17	none	NaN	NaN
111	1	86	12	bathroom	sun_aapitsgbtktqubfy.tif	589816.161497	589816.420088	589817.160198	7.257055e-01	2	none	NaN	NaN
111	1	87	23	bathroom	sun_aghyqhbptboemmoq.tif	589817.929911	589818.188506	589818.928615	6.506325e-01	13	39	589820.256376	1
111	1	88	20	bathroom	sun_afcoljnjfoxjtgja.tif	589821.032990	589821.291578	589822.031652	8.424856e-01	10	none	NaN	NaN
111	1	89	40	bathroom	sun_aofnryafpsjimzsb.tif	589822.801408	589823.059996	589823.800255	6.589739e-01	30	none	NaN	NaN
111	1	90	39	bathroom	sun_anryaplzeujmzfkd.tif	589824.569827	589824.828420	589825.568644	6.839982e-01	29	none	NaN	NaN
111	1	91	43	bathroom	sun_apjevzvycyhuqghb.tif	589826.338245	589826.596836	589827.337015	8.258028e-01	33	none	NaN	NaN
111	1	92	34	bathroom	sun_alkosphxlxwjwgjd.tif	589828.106660	589828.365251	589829.105351	6.673154e-01	24	none	NaN	NaN
111	1	93	41	bathroom	sun_aoybiabnpadelefl.tif	589829.875081	589830.133667	589830.873937	8.424856e-01	31	none	NaN	NaN
111	1	94	46	bathroom	sun_apmqjbnwghzuhhzh.tif	589831.643498	589831.902086	589832.642214	6.756568e-01	36	none	NaN	NaN
111	1	95	57	bathroom	sun_axldvoqbuvuggfmq.tif	589833.411919	589833.670508	589834.410680	8.508271e-01	47	none	NaN	NaN
111	1	96	31	bathroom	sun_akiytfaagpdsphgz.tif	589835.180338	589835.438924	589836.179052	7.507298e-01	21	37	589837.064520	1
111	1	97	37	bathroom	sun_amzlamotzwfkwjco.tif	589837.841306	589838.099892	589838.839966	7.090226e-01	27	none	NaN	NaN
111	1	98	29	bathroom	sun_ahqjwnzgolcaoidx.tif	589839.609725	589839.868315	589840.608505	7.674127e-01	19	none	NaN	NaN
111	1	99	52	bathroom	sun_aunuadmjocsddsrl.tif	589841.378136	589841.636731	589842.377001	7.924370e-01	42	none	NaN	NaN
111	1	100	48	bathroom	sun_aqrpegblszgcoujh.tif	589843.146564	589843.405152	589844.145337	6.673154e-01	38	none	NaN	NaN
111	2	1	62	kitchen	labelme_kxvouciolcpqplr.tif	589852.105437	589852.364023	589853.054066	8.258028e-01	52	none	NaN	NaN
111	2	2	82	kitchen	sun_aenotlpyftoioydp.tif	589853.823805	589854.082397	589854.772486	7.006811e-01	72	none	NaN	NaN
111	2	3	80	kitchen	sun_aegoxogugdkwpmpj.tif	589855.542174	589855.800763	589856.490912	8.258028e-01	70	none	NaN	NaN
111	2	4	84	kitchen	sun_aexklacwqwezaorf.tif	589857.260541	589857.519131	589858.209267	7.507298e-01	74	none	NaN	NaN
111	2	5	88	kitchen	sun_agubuxuukhzyzpdp.tif	589858.978909	589859.237498	589859.927642	7.423883e-01	78	none	NaN	NaN
111	2	6	85	kitchen	sun_afuyedyxivkhecmu.tif	589860.697282	589860.955869	589861.646013	7.924370e-01	75	37	589862.664226	1
111	2	7	73	kitchen	sun_abrcnpqqhmjwekyf.tif	589863.441667	589863.700251	589864.390398	7.590712e-01	63	none	NaN	NaN
111	2	8	99	kitchen	sun_akcjzhbbjlbogpdi.tif	589865.160035	589865.418622	589866.108719	7.257055e-01	89	none	NaN	NaN
111	2	9	75	kitchen	sun_acgtpgfybqjmzeyw.tif	589866.878406	589867.136993	589867.827009	7.590712e-01	65	none	NaN	NaN
111	2	10	92	kitchen	sun_ahpczsiumwwocjkv.tif	589868.596776	589868.855365	589869.545590	7.590712e-01	82	none	NaN	NaN
111	2	11	67	kitchen	sun_aarfiyshqohlwkmo.tif	589870.315142	589870.573727	589871.263837	7.507298e-01	57	37	589872.160527	1
111	2	12	89	kitchen	sun_agzzivivdpnawacl.tif	589872.934399	589873.192996	589873.883104	7.090226e-01	79	none	NaN	NaN
111	2	13	87	kitchen	sun_agorklincwxrdtga.tif	589874.652772	589874.911360	589875.601584	8.341442e-01	77	none	NaN	NaN
111	2	14	70	kitchen	sun_abdxkyyxwfskuaqb.tif	589876.371141	589876.629734	589877.319815	7.006811e-01	60	none	NaN	NaN
111	2	15	69	kitchen	sun_abdenxonkemggwsq.tif	589878.089511	589878.348096	589879.038210	6.506325e-01	59	none	NaN	NaN
111	2	16	66	kitchen	sun_aapllqyqlykszopd.tif	589879.807882	589880.066467	589880.756591	7.340469e-01	56	37	589881.456537	0
111	2	17	104	kitchen	sun_auticobqsbwgoppi.tif	589882.226943	589882.485538	589883.175578	8.007784e-01	94	none	NaN	NaN
111	2	18	90	kitchen	sun_ahdycvpopffkzzsu.tif	589883.945313	589884.203901	589884.894043	6.839982e-01	80	none	NaN	NaN
111	2	19	96	kitchen	sun_ajcbwwvdlsvjyzje.tif	589885.663679	589885.922267	589886.612294	6.923397e-01	86	none	NaN	NaN
111	2	20	65	kitchen	sun_aamedkxepzlwuxes.tif	589887.382052	589887.640640	589888.330657	7.090226e-01	55	none	NaN	NaN
111	2	21	106	kitchen	sun_awcpdzzznmweyyhv.tif	589889.100421	589889.359011	589890.049132	7.674127e-01	96	none	NaN	NaN
111	2	22	83	kitchen	sun_aeqdocilnnpuvuhx.tif	589890.818787	589891.077379	589891.767531	8.424856e-01	73	none	NaN	NaN
111	2	23	64	kitchen	sun_aadbddgrdsjugojn.tif	589892.537157	589892.795749	589893.485764	7.840955e-01	54	none	NaN	NaN
111	2	24	61	kitchen	labelme_brsyyvweiuaazfr.tif	589894.247190	589894.505773	589895.195973	7.173640e-01	51	none	NaN	NaN
111	2	25	107	kitchen	sun_axyyrmzcupyhlivc.tif	589895.965552	589896.224141	589896.914236	7.340469e-01	97	none	NaN	NaN
111	2	26	91	kitchen	sun_ahljzhgcdpomplvg.tif	589897.683925	589897.942514	589898.632560	6.589739e-01	81	none	NaN	NaN
111	2	27	94	kitchen	sun_ahywdevtimnqcsln.tif	589899.402294	589899.660882	589900.350994	7.507298e-01	84	none	NaN	NaN
111	2	28	78	kitchen	sun_adgqasybjyktddhj.tif	589901.120661	589901.379249	589902.069363	7.257055e-01	68	none	NaN	NaN
111	2	29	102	kitchen	sun_auaiucuqpdausiva.tif	589902.839026	589903.097619	589903.787785	6.923397e-01	92	none	NaN	NaN
111	2	30	95	kitchen	sun_aixorpehvfykdynp.tif	589904.557402	589904.815987	589905.506205	6.673154e-01	85	none	NaN	NaN
111	2	31	81	kitchen	sun_aehawpgmrlhlvcow.tif	589906.275766	589906.534356	589907.224420	7.006811e-01	71	39	589908.496155	1
111	2	32	74	kitchen	sun_acfmftudsenhrfhy.tif	589909.270401	589909.528993	589910.219149	8.341442e-01	64	37	589911.048446	1
111	2	33	72	kitchen	sun_abpwyqmlzafvklqo.tif	589911.822932	589912.081521	589912.771593	7.090226e-01	62	none	NaN	NaN
111	2	34	109	kitchen	sun_aypmqwcualkenuoe.tif	589913.541300	589913.799886	589914.489922	7.173640e-01	99	39	589916.216364	0
111	2	35	63	kitchen	labelme_rykdqxenmhulbdn.tif	589916.994721	589917.253304	589917.943414	7.757541e-01	53	none	NaN	NaN
111	2	36	105	kitchen	sun_avszsnwsbuqfgzbn.tif	589918.713087	589918.971676	589919.661778	7.090226e-01	95	none	NaN	NaN
111	2	37	98	kitchen	sun_akchetnepxlcxhsu.tif	589920.431457	589920.690049	589921.380219	8.091199e-01	88	none	NaN	NaN
111	2	38	86	kitchen	sun_aggjlwcdjsjcaemh.tif	589922.149825	589922.408416	589923.098585	6.673154e-01	76	none	NaN	NaN
111	2	39	68	kitchen	sun_aaxxjlsuzvqlgylf.tif	589923.868195	589924.126782	589924.817003	7.590712e-01	58	none	NaN	NaN
111	2	40	71	kitchen	sun_abftihopvusyfakt.tif	589925.586567	589925.845173	589926.535327	8.424856e-01	61	none	NaN	NaN
111	2	41	93	kitchen	sun_ahspylgoovwmwvgk.tif	589927.304933	589927.563518	589928.253677	7.674127e-01	83	37	589929.672501	0
111	2	42	100	kitchen	sun_amjjdeyrggfqgmom.tif	589930.449714	589930.708307	589931.398487	8.174613e-01	90	none	NaN	NaN
111	2	43	108	kitchen	sun_aymvwlarqodbwuoc.tif	589932.168087	589932.426673	589933.116833	6.756568e-01	98	none	NaN	NaN
111	2	44	76	kitchen	sun_acwjdupvyjsugpay.tif	589933.886453	589934.145045	589934.835072	7.840955e-01	66	none	NaN	NaN
111	2	45	97	kitchen	sun_ajkqhtgcbgpcwrwn.tif	589935.604822	589935.863412	589936.553540	7.757541e-01	87	none	NaN	NaN
111	2	46	79	kitchen	sun_admlmbcdswaszruo.tif	589937.323189	589937.581785	589938.271993	8.258028e-01	69	none	NaN	NaN
111	2	47	77	kitchen	sun_acxkpeoqbwcxfvip.tif	589939.041559	589939.300150	589939.990199	7.924370e-01	67	none	NaN	NaN
111	2	48	103	kitchen	sun_aunzlwrbjumxhwdj.tif	589940.759932	589941.018519	589941.708640	7.840955e-01	93	none	NaN	NaN
111	2	49	110	kitchen	sun_azmutvzbxypaceni.tif	589942.478295	589942.736884	589943.426994	8.007784e-01	100	none	NaN	NaN
111	2	50	101	kitchen	sun_aqeaevwwwjoqhzvl.tif	589944.196666	589944.455258	589945.145433	7.173640e-01	91	none	NaN	NaN
111	2	51	88	kitchen	sun_agubuxuukhzyzpdp.tif	589945.915036	589946.173626	589946.863751	8.174613e-01	78	none	NaN	NaN
111	2	52	92	kitchen	sun_ahpczsiumwwocjkv.tif	589947.633403	589947.891992	589948.582208	6.923397e-01	82	37	589950.184568	0
111	2	53	66	kitchen	sun_aapllqyqlykszopd.tif	589950.961699	589951.220297	589951.910347	8.091199e-01	56	none	NaN	NaN
111	2	54	102	kitchen	sun_auaiucuqpdausiva.tif	589952.680067	589952.938658	589953.628795	7.924370e-01	92	37	589954.736463	1
111	2	55	78	kitchen	sun_adgqasybjyktddhj.tif	589955.507872	589955.766462	589956.456714	7.924370e-01	68	none	NaN	NaN
111	2	56	68	kitchen	sun_aaxxjlsuzvqlgylf.tif	589957.226245	589957.484829	589958.174967	6.756568e-01	58	none	NaN	NaN
111	2	57	62	kitchen	labelme_kxvouciolcpqplr.tif	589958.944609	589959.203199	589959.893325	6.589739e-01	52	none	NaN	NaN
111	2	58	100	kitchen	sun_amjjdeyrggfqgmom.tif	589960.662980	589960.921568	589961.611587	6.923397e-01	90	none	NaN	NaN
111	2	59	74	kitchen	sun_acfmftudsenhrfhy.tif	589962.381352	589962.639935	589963.329987	7.173640e-01	64	none	NaN	NaN
111	2	60	109	kitchen	sun_aypmqwcualkenuoe.tif	589964.099719	589964.358308	589965.048461	8.424856e-01	99	none	NaN	NaN
111	2	61	105	kitchen	sun_avszsnwsbuqfgzbn.tif	589965.818083	589966.076679	589966.766871	7.590712e-01	95	none	NaN	NaN
111	2	62	67	kitchen	sun_aarfiyshqohlwkmo.tif	589967.536451	589967.795049	589968.485231	6.839982e-01	57	none	NaN	NaN
111	2	63	83	kitchen	sun_aeqdocilnnpuvuhx.tif	589969.254826	589969.513411	589970.203559	6.673154e-01	73	none	NaN	NaN
111	2	64	90	kitchen	sun_ahdycvpopffkzzsu.tif	589970.973191	589971.231779	589971.921847	6.756568e-01	80	none	NaN	NaN
111	2	65	75	kitchen	sun_acgtpgfybqjmzeyw.tif	589972.691561	589972.950149	589973.640219	7.757541e-01	65	none	NaN	NaN
111	2	66	101	kitchen	sun_aqeaevwwwjoqhzvl.tif	589974.409931	589974.668525	589975.358622	7.757541e-01	91	none	NaN	NaN
111	2	67	82	kitchen	sun_aenotlpyftoioydp.tif	589976.128298	589976.386892	589977.077013	6.839982e-01	72	39	589978.096481	1
111	2	68	97	kitchen	sun_ajkqhtgcbgpcwrwn.tif	589978.872686	589979.131273	589979.821419	7.006811e-01	87	none	NaN	NaN
111	2	69	77	kitchen	sun_acxkpeoqbwcxfvip.tif	589980.591052	589980.849645	589981.539708	7.340469e-01	67	none	NaN	NaN
111	2	70	63	kitchen	labelme_rykdqxenmhulbdn.tif	589982.309425	589982.568012	589983.258097	7.423883e-01	53	none	NaN	NaN
111	2	71	87	kitchen	sun_agorklincwxrdtga.tif	589984.027795	589984.286385	589984.976418	8.341442e-01	77	none	NaN	NaN
111	2	72	84	kitchen	sun_aexklacwqwezaorf.tif	589985.746163	589986.004751	589986.694862	7.674127e-01	74	none	NaN	NaN
111	2	73	94	kitchen	sun_ahywdevtimnqcsln.tif	589987.464532	589987.723119	589988.413243	6.923397e-01	84	37	589989.464448	1
111	2	74	65	kitchen	sun_aamedkxepzlwuxes.tif	589990.242280	589990.500869	589991.191010	8.508271e-01	55	none	NaN	NaN
111	2	75	96	kitchen	sun_ajcbwwvdlsvjyzje.tif	589991.960652	589992.219238	589992.909359	7.507298e-01	86	39	589993.832420	1
111	2	76	106	kitchen	sun_awcpdzzznmweyyhv.tif	589994.604936	589994.863530	589995.553689	8.007784e-01	96	none	NaN	NaN
111	2	77	80	kitchen	sun_aegoxogugdkwpmpj.tif	589996.323307	589996.581895	589997.272023	8.258028e-01	70	37	589998.176473	1
111	2	78	95	kitchen	sun_aixorpehvfykdynp.tif	589998.950909	589999.209502	589999.899636	7.423883e-01	85	none	NaN	NaN
111	2	79	81	kitchen	sun_aehawpgmrlhlvcow.tif	590000.669274	590000.927866	590001.617906	8.174613e-01	71	none	NaN	NaN
111	2	80	76	kitchen	sun_acwjdupvyjsugpay.tif	590002.387645	590002.646238	590003.336356	6.589739e-01	66	39	590004.608492	1
111	2	81	61	kitchen	labelme_brsyyvweiuaazfr.tif	590005.382280	590005.640870	590006.330941	8.091199e-01	51	none	NaN	NaN
111	2	82	98	kitchen	sun_akchetnepxlcxhsu.tif	590007.100649	590007.359244	590008.049349	8.007784e-01	88	none	NaN	NaN
111	2	83	91	kitchen	sun_ahljzhgcdpomplvg.tif	590008.819021	590009.077608	590009.767805	6.506325e-01	81	none	NaN	NaN
111	2	84	72	kitchen	sun_abpwyqmlzafvklqo.tif	590010.537388	590010.795977	590011.486001	6.589739e-01	62	none	NaN	NaN
111	2	85	107	kitchen	sun_axyyrmzcupyhlivc.tif	590012.255758	590012.514341	590013.204366	7.423883e-01	97	39	590014.328415	1
111	2	86	104	kitchen	sun_auticobqsbwgoppi.tif	590015.100239	590015.358832	590016.048980	6.839982e-01	94	none	NaN	NaN
111	2	87	108	kitchen	sun_aymvwlarqodbwuoc.tif	590016.818610	590017.077198	590017.767256	7.257055e-01	98	none	NaN	NaN
111	2	88	93	kitchen	sun_ahspylgoovwmwvgk.tif	590018.536981	590018.795572	590019.485655	8.258028e-01	83	none	NaN	NaN
111	2	89	86	kitchen	sun_aggjlwcdjsjcaemh.tif	590020.255349	590020.513939	590021.203956	8.174613e-01	76	none	NaN	NaN
111	2	90	103	kitchen	sun_aunzlwrbjumxhwdj.tif	590021.973713	590022.232309	590022.922322	6.506325e-01	93	none	NaN	NaN
111	2	91	73	kitchen	sun_abrcnpqqhmjwekyf.tif	590023.692086	590023.950674	590024.640699	7.340469e-01	63	none	NaN	NaN
111	2	92	89	kitchen	sun_agzzivivdpnawacl.tif	590025.410456	590025.669045	590026.359097	7.674127e-01	79	none	NaN	NaN
111	2	93	71	kitchen	sun_abftihopvusyfakt.tif	590027.128819	590027.387414	590028.077531	6.756568e-01	61	none	NaN	NaN
111	2	94	85	kitchen	sun_afuyedyxivkhecmu.tif	590028.847192	590029.105781	590029.795974	8.508271e-01	75	none	NaN	NaN
111	2	95	64	kitchen	sun_aadbddgrdsjugojn.tif	590030.565563	590030.824154	590031.514345	6.673154e-01	54	none	NaN	NaN
111	2	96	110	kitchen	sun_azmutvzbxypaceni.tif	590032.283928	590032.542522	590033.232622	8.424856e-01	100	none	NaN	NaN
111	2	97	70	kitchen	sun_abdxkyyxwfskuaqb.tif	590034.002302	590034.260888	590034.951044	8.341442e-01	60	none	NaN	NaN
111	2	98	99	kitchen	sun_akcjzhbbjlbogpdi.tif	590035.720670	590035.979260	590036.669422	7.840955e-01	89	none	NaN	NaN
111	2	99	79	kitchen	sun_admlmbcdswaszruo.tif	590037.439043	590037.697627	590038.387760	8.091199e-01	69	none	NaN	NaN
111	2	100	69	kitchen	sun_abdenxonkemggwsq.tif	590039.157411	590039.415993	590040.106139	7.257055e-01	59	none	NaN	NaN
111	3	1	27	bathroom	sun_ahcvzmoyaycdoftf.tif	590049.042200	590049.300787	590050.115968	8.258028e-01	17	none	NaN	NaN
111	3	2	21	bathroom	sun_aggnnqpdorgxpvce.tif	590050.877372	590051.135943	590051.951118	6.923397e-01	11	39	590053.016580	1
111	3	3	19	bathroom	sun_aclfzgynxzxlbepz.tif	590053.788564	590054.047157	590054.862332	8.258028e-01	9	none	NaN	NaN
111	3	4	46	bathroom	sun_apmqjbnwghzuhhzh.tif	590055.632063	590055.890649	590056.705871	7.090226e-01	36	none	NaN	NaN
111	3	5	17	bathroom	sun_acegryoqftbzowsg.tif	590057.475552	590057.734139	590058.549311	8.424856e-01	7	none	NaN	NaN
111	3	6	34	bathroom	sun_alkosphxlxwjwgjd.tif	590059.319047	590059.577640	590060.392911	7.257055e-01	24	none	NaN	NaN
111	3	7	18	bathroom	sun_acgyywnybuveqsro.tif	590061.162540	590061.421129	590062.236363	7.090226e-01	8	none	NaN	NaN
111	3	8	38	bathroom	sun_anhioqovhscjqqwb.tif	590063.006036	590063.264627	590064.079961	6.756568e-01	28	none	NaN	NaN
111	3	9	50	bathroom	sun_aspsyogrekjtfozg.tif	590064.849522	590065.108117	590065.923406	8.424856e-01	40	none	NaN	NaN
111	3	10	29	bathroom	sun_ahqjwnzgolcaoidx.tif	590066.693017	590066.951610	590067.766754	7.090226e-01	19	37	590069.048514	1
111	3	11	53	bathroom	sun_ausgutylgojavyoq.tif	590069.821118	590070.079707	590070.894860	6.589739e-01	43	none	NaN	NaN
111	3	12	59	bathroom	sun_axyrejkiiaqiurjk.tif	590071.664610	590071.923201	590072.738510	7.840955e-01	49	none	NaN	NaN
111	3	13	24	bathroom	sun_agrwbmhcpmfuwmsg.tif	590073.508105	590073.766690	590074.581853	8.007784e-01	14	none	NaN	NaN
111	3	14	58	bathroom	sun_axxbkopsgyouuebh.tif	590075.351601	590075.610191	590076.425395	7.507298e-01	48	none	NaN	NaN
111	3	15	31	bathroom	sun_akiytfaagpdsphgz.tif	590077.195089	590077.453678	590078.268964	6.839982e-01	21	none	NaN	NaN
111	3	16	13	bathroom	sun_aavhrsfjbserjtht.tif	590079.038585	590079.297173	590080.112339	7.590712e-01	3	none	NaN	NaN
111	3	17	54	bathroom	sun_auzqhkafidnkrwmo.tif	590080.882073	590081.140667	590081.955993	8.341442e-01	44	37	590083.168551	1
111	3	18	37	bathroom	sun_amzlamotzwfkwjco.tif	590083.943443	590084.202029	590085.017308	7.340469e-01	27	none	NaN	NaN
111	3	19	49	bathroom	sun_asfwthctfqerjvxr.tif	590085.786935	590086.045518	590086.860725	7.173640e-01	39	none	NaN	NaN
111	3	20	45	bathroom	sun_apkxzenqapsujocq.tif	590087.630426	590087.889013	590088.704165	6.756568e-01	35	none	NaN	NaN
111	3	21	39	bathroom	sun_anryaplzeujmzfkd.tif	590089.473919	590089.732503	590090.547838	6.506325e-01	29	none	NaN	NaN
111	3	22	51	bathroom	sun_atstyziqcmkahyxk.tif	590091.317412	590091.576000	590092.391349	7.674127e-01	41	none	NaN	NaN
111	3	23	30	bathroom	sun_ajlawzvmubibwbpy.tif	590093.160907	590093.419496	590094.234707	6.923397e-01	20	none	NaN	NaN
111	3	24	33	bathroom	sun_aljolscmmzydegqp.tif	590095.004397	590095.262989	590096.078181	7.840955e-01	23	none	NaN	NaN
111	3	25	20	bathroom	sun_afcoljnjfoxjtgja.tif	590096.847890	590097.106482	590097.921708	6.756568e-01	10	none	NaN	NaN
111	3	26	60	bathroom	sun_azqyogdvyhahyram.tif	590098.691389	590098.949971	590099.765115	8.091199e-01	50	none	NaN	NaN
111	3	27	22	bathroom	sun_agguqiubmwhqqunb.tif	590100.534881	590100.793468	590101.608798	7.674127e-01	12	37	590102.936403	0
111	3	28	55	bathroom	sun_avhrdrntsqrjzccq.tif	590103.713025	590103.971617	590104.786891	7.173640e-01	45	none	NaN	NaN
111	3	29	52	bathroom	sun_aunuadmjocsddsrl.tif	590105.556518	590105.815109	590106.630326	7.006811e-01	42	none	NaN	NaN
111	3	30	14	bathroom	sun_abapwbhyhkfixyex.tif	590107.400013	590107.658605	590108.473750	7.924370e-01	4	none	NaN	NaN
111	3	31	35	bathroom	sun_alotolagknyrgtsk.tif	590109.243507	590109.502092	590110.317262	7.757541e-01	25	40	590112.248511	0
111	3	32	11	bathroom	labelme_sfxiulhjbhlyiyt.tif	590113.022251	590113.280841	590114.095999	7.340469e-01	1	none	NaN	NaN
111	3	33	48	bathroom	sun_aqrpegblszgcoujh.tif	590114.865739	590115.124334	590115.939520	8.258028e-01	38	none	NaN	NaN
111	3	34	28	bathroom	sun_ahijqszoswveeyji.tif	590116.709232	590116.967821	590117.783060	7.507298e-01	18	39	590119.656518	1
111	3	35	57	bathroom	sun_axldvoqbuvuggfmq.tif	590120.429585	590120.688175	590121.503467	7.924370e-01	47	none	NaN	NaN
111	3	36	26	bathroom	sun_ahaulkltgpkeeemi.tif	590122.273079	590122.531669	590123.346975	7.257055e-01	16	none	NaN	NaN
111	3	37	23	bathroom	sun_aghyqhbptboemmoq.tif	590124.116571	590124.375164	590125.190411	8.174613e-01	13	none	NaN	NaN
111	3	38	47	bathroom	sun_apynckhmoftszqoq.tif	590125.960064	590126.218658	590127.033992	7.423883e-01	37	none	NaN	NaN
111	3	39	42	bathroom	sun_apeeialkgkuxddgh.tif	590127.803555	590128.062148	590128.877528	7.674127e-01	32	37	590129.816380	0
111	3	40	25	bathroom	sun_agyqfjcfkdcydepw.tif	590130.589654	590130.848240	590131.663512	6.839982e-01	15	none	NaN	NaN
111	3	41	32	bathroom	sun_aleqenyvunhactkl.tif	590132.433147	590132.691733	590133.506899	7.507298e-01	22	37	590134.800395	0
111	3	42	12	bathroom	sun_aapitsgbtktqubfy.tif	590135.577928	590135.836519	590136.651782	8.007784e-01	2	none	NaN	NaN
111	3	43	36	bathroom	sun_ambriybtogmepttm.tif	590137.421419	590137.680005	590138.495335	7.006811e-01	26	none	NaN	NaN
111	3	44	44	bathroom	sun_apkruvsevgegsdwp.tif	590139.264914	590139.523501	590140.338655	8.508271e-01	34	none	NaN	NaN
111	3	45	56	bathroom	sun_awnqiikzaispgmwo.tif	590141.108403	590141.366993	590142.182179	6.756568e-01	46	none	NaN	NaN
111	3	46	15	bathroom	sun_abjtwfukuwddzted.tif	590142.951897	590143.210487	590144.025828	8.424856e-01	5	none	NaN	NaN
111	3	47	16	bathroom	sun_acduarbnmmoglmiv.tif	590144.795391	590145.053980	590145.869133	6.923397e-01	6	none	NaN	NaN
111	3	48	43	bathroom	sun_apjevzvycyhuqghb.tif	590146.638885	590146.897469	590147.712608	7.757541e-01	33	none	NaN	NaN
111	3	49	40	bathroom	sun_aofnryafpsjimzsb.tif	590148.482376	590148.740968	590149.556770	6.673154e-01	30	none	NaN	NaN
111	3	50	41	bathroom	sun_aoybiabnpadelefl.tif	590150.325871	590150.584461	590151.399691	6.673154e-01	31	none	NaN	NaN
111	3	51	27	bathroom	sun_ahcvzmoyaycdoftf.tif	590152.169367	590152.427954	590153.243277	8.341442e-01	17	37	590154.240220	1
111	3	52	36	bathroom	sun_ambriybtogmepttm.tif	590155.013848	590155.272436	590156.087786	8.341442e-01	26	none	NaN	NaN
111	3	53	37	bathroom	sun_amzlamotzwfkwjco.tif	590156.857343	590157.115931	590157.931102	8.091199e-01	27	none	NaN	NaN
111	3	54	14	bathroom	sun_abapwbhyhkfixyex.tif	590158.700836	590158.959423	590159.774696	8.007784e-01	4	none	NaN	NaN
111	3	55	40	bathroom	sun_aofnryafpsjimzsb.tif	590160.544329	590160.802915	590161.618124	7.173640e-01	30	none	NaN	NaN
111	3	56	41	bathroom	sun_aoybiabnpadelefl.tif	590162.387820	590162.646412	590163.461554	6.589739e-01	31	none	NaN	NaN
111	3	57	39	bathroom	sun_anryaplzeujmzfkd.tif	590164.231313	590164.489903	590165.305232	6.839982e-01	29	none	NaN	NaN
111	3	58	43	bathroom	sun_apjevzvycyhuqghb.tif	590166.074806	590166.333391	590167.148627	6.923397e-01	33	none	NaN	NaN
111	3	59	60	bathroom	sun_azqyogdvyhahyram.tif	590167.918296	590168.176887	590168.992096	7.006811e-01	50	39	590170.544424	1
111	3	60	38	bathroom	sun_anhioqovhscjqqwb.tif	590171.321666	590171.580261	590172.395420	7.257055e-01	28	none	NaN	NaN
111	3	61	12	bathroom	sun_aapitsgbtktqubfy.tif	590173.165161	590173.423748	590174.239006	7.423883e-01	2	none	NaN	NaN
111	3	62	11	bathroom	labelme_sfxiulhjbhlyiyt.tif	590175.008659	590175.267245	590176.082496	7.757541e-01	1	none	NaN	NaN
111	3	63	30	bathroom	sun_ajlawzvmubibwbpy.tif	590176.852153	590177.110738	590177.925916	8.174613e-01	20	none	NaN	NaN
111	3	64	28	bathroom	sun_ahijqszoswveeyji.tif	590178.695646	590178.954232	590179.769522	6.506325e-01	18	none	NaN	NaN
111	3	65	48	bathroom	sun_aqrpegblszgcoujh.tif	590180.539138	590180.797722	590181.613005	7.507298e-01	38	none	NaN	NaN
111	3	66	25	bathroom	sun_agyqfjcfkdcydepw.tif	590182.382626	590182.641220	590183.456417	7.423883e-01	15	none	NaN	NaN
111	3	67	23	bathroom	sun_aghyqhbptboemmoq.tif	590184.226076	590184.484715	590185.299914	6.923397e-01	13	none	NaN	NaN
111	3	68	16	bathroom	sun_acduarbnmmoglmiv.tif	590186.069616	590186.328202	590187.143377	7.340469e-01	6	none	NaN	NaN
111	3	69	58	bathroom	sun_axxbkopsgyouuebh.tif	590187.913107	590188.171701	590188.986852	8.258028e-01	48	none	NaN	NaN
111	3	70	21	bathroom	sun_aggnnqpdorgxpvce.tif	590189.756599	590190.015188	590190.830424	8.174613e-01	11	none	NaN	NaN
111	3	71	26	bathroom	sun_ahaulkltgpkeeemi.tif	590191.600097	590191.858681	590192.674040	8.091199e-01	16	none	NaN	NaN
111	3	72	34	bathroom	sun_alkosphxlxwjwgjd.tif	590193.443586	590193.702176	590194.517327	6.506325e-01	24	none	NaN	NaN
111	3	73	52	bathroom	sun_aunuadmjocsddsrl.tif	590195.287079	590195.545668	590196.360812	6.673154e-01	42	none	NaN	NaN
111	3	74	15	bathroom	sun_abjtwfukuwddzted.tif	590197.130575	590197.389163	590198.204513	7.590712e-01	5	none	NaN	NaN
111	3	75	13	bathroom	sun_aavhrsfjbserjtht.tif	590198.974068	590199.232656	590200.047938	7.674127e-01	3	none	NaN	NaN
111	3	76	46	bathroom	sun_apmqjbnwghzuhhzh.tif	590200.817560	590201.076146	590201.891317	8.424856e-01	36	none	NaN	NaN
111	3	77	59	bathroom	sun_axyrejkiiaqiurjk.tif	590202.661048	590202.919642	590203.734910	7.924370e-01	49	none	NaN	NaN
111	3	78	42	bathroom	sun_apeeialkgkuxddgh.tif	590204.504545	590204.763133	590205.578356	7.840955e-01	32	none	NaN	NaN
111	3	79	24	bathroom	sun_agrwbmhcpmfuwmsg.tif	590206.348037	590206.606625	590207.421939	8.007784e-01	14	none	NaN	NaN
111	3	80	35	bathroom	sun_alotolagknyrgtsk.tif	590208.191533	590208.450123	590209.265364	7.173640e-01	25	37	590210.248557	1
111	3	81	57	bathroom	sun_axldvoqbuvuggfmq.tif	590211.019331	590211.277918	590212.093147	8.258028e-01	47	none	NaN	NaN
111	3	82	32	bathroom	sun_aleqenyvunhactkl.tif	590212.862826	590213.121413	590213.936649	7.423883e-01	22	none	NaN	NaN
111	3	83	55	bathroom	sun_avhrdrntsqrjzccq.tif	590214.706315	590214.964909	590215.780177	7.924370e-01	45	39	590217.240203	0
111	3	84	22	bathroom	sun_agguqiubmwhqqunb.tif	590218.017929	590218.276519	590219.091769	6.589739e-01	12	none	NaN	NaN
111	3	85	45	bathroom	sun_apkxzenqapsujocq.tif	590219.861422	590220.120014	590220.935317	7.340469e-01	35	none	NaN	NaN
111	3	86	20	bathroom	sun_afcoljnjfoxjtgja.tif	590221.704921	590221.963507	590222.778770	7.840955e-01	10	37	590223.656569	1
111	3	87	19	bathroom	sun_aclfzgynxzxlbepz.tif	590224.432617	590224.691208	590225.506363	7.590712e-01	9	none	NaN	NaN
111	3	88	31	bathroom	sun_akiytfaagpdsphgz.tif	590226.276116	590226.534700	590227.349862	7.590712e-01	21	none	NaN	NaN
111	3	89	47	bathroom	sun_apynckhmoftszqoq.tif	590228.119605	590228.378196	590229.194437	8.508271e-01	37	none	NaN	NaN
111	3	90	17	bathroom	sun_acegryoqftbzowsg.tif	590229.963097	590230.221691	590231.036971	6.839982e-01	7	none	NaN	NaN
111	3	91	33	bathroom	sun_aljolscmmzydegqp.tif	590231.806591	590232.065179	590232.880350	7.257055e-01	23	none	NaN	NaN
111	3	92	51	bathroom	sun_atstyziqcmkahyxk.tif	590233.650084	590233.908674	590234.723847	6.673154e-01	41	37	590235.672529	1
111	3	93	54	bathroom	sun_auzqhkafidnkrwmo.tif	590236.444516	590236.703106	590237.518416	8.174613e-01	44	none	NaN	NaN
111	3	94	18	bathroom	sun_acgyywnybuveqsro.tif	590238.288007	590238.546597	590239.361795	7.006811e-01	8	none	NaN	NaN
111	3	95	50	bathroom	sun_aspsyogrekjtfozg.tif	590240.131509	590240.390100	590241.205390	7.090226e-01	40	none	NaN	NaN
111	3	96	53	bathroom	sun_ausgutylgojavyoq.tif	590241.974995	590242.233589	590243.048819	7.757541e-01	43	none	NaN	NaN
111	3	97	56	bathroom	sun_awnqiikzaispgmwo.tif	590243.818488	590244.077087	590244.892276	8.091199e-01	46	37	590246.184477	1
111	3	98	49	bathroom	sun_asfwthctfqerjvxr.tif	590246.954934	590247.213526	590248.028799	7.590712e-01	39	none	NaN	NaN
111	3	99	44	bathroom	sun_apkruvsevgegsdwp.tif	590248.798423	590249.057012	590249.872297	6.589739e-01	34	none	NaN	NaN
111	3	100	29	bathroom	sun_ahqjwnzgolcaoidx.tif	590250.641917	590250.900511	590251.715699	8.341442e-01	19	none	NaN	NaN
111	4	1	68	kitchen	sun_aaxxjlsuzvqlgylf.tif	590259.500701	590259.759281	590260.457673	7.257055e-01	58	none	NaN	NaN
111	4	2	77	kitchen	sun_acxkpeoqbwcxfvip.tif	590261.227403	590261.485990	590262.184399	7.006811e-01	67	none	NaN	NaN
111	4	3	79	kitchen	sun_admlmbcdswaszruo.tif	590262.954116	590263.212701	590263.911173	8.174613e-01	69	none	NaN	NaN
111	4	4	86	kitchen	sun_aggjlwcdjsjcaemh.tif	590264.680826	590264.939415	590265.637953	7.090226e-01	76	none	NaN	NaN
111	4	5	94	kitchen	sun_ahywdevtimnqcsln.tif	590266.407532	590266.666090	590267.364689	7.006811e-01	84	none	NaN	NaN
111	4	6	95	kitchen	sun_aixorpehvfykdynp.tif	590268.134244	590268.392837	590269.091210	6.756568e-01	85	none	NaN	NaN
111	4	7	75	kitchen	sun_acgtpgfybqjmzeyw.tif	590269.860962	590270.119546	590270.818039	7.507298e-01	65	none	NaN	NaN
111	4	8	88	kitchen	sun_agubuxuukhzyzpdp.tif	590271.587668	590271.846261	590272.544761	6.589739e-01	78	none	NaN	NaN
111	4	9	85	kitchen	sun_afuyedyxivkhecmu.tif	590273.314378	590273.572970	590274.271393	7.840955e-01	75	37	590275.240496	1
111	4	10	104	kitchen	sun_auticobqsbwgoppi.tif	590276.017052	590276.275647	590276.974079	7.590712e-01	94	37	590278.432465	0
111	4	11	72	kitchen	sun_abpwyqmlzafvklqo.tif	590279.203545	590279.462137	590280.160486	7.924370e-01	62	none	NaN	NaN
111	4	12	66	kitchen	sun_aapllqyqlykszopd.tif	590280.930258	590281.188846	590281.887409	7.257055e-01	56	none	NaN	NaN
111	4	13	69	kitchen	sun_abdenxonkemggwsq.tif	590282.656965	590282.915555	590283.614026	8.091199e-01	59	39	590285.856520	1
111	4	14	108	kitchen	sun_aymvwlarqodbwuoc.tif	590286.627566	590286.886154	590287.584547	6.756568e-01	98	none	NaN	NaN
111	4	15	105	kitchen	sun_avszsnwsbuqfgzbn.tif	590288.354279	590288.612867	590289.311422	7.507298e-01	95	none	NaN	NaN
111	4	16	78	kitchen	sun_adgqasybjyktddhj.tif	590290.080986	590290.339578	590291.038142	8.007784e-01	68	none	NaN	NaN
111	4	17	101	kitchen	sun_aqeaevwwwjoqhzvl.tif	590291.807699	590292.066287	590292.764670	8.508271e-01	91	37	590293.640404	0
111	4	18	99	kitchen	sun_akcjzhbbjlbogpdi.tif	590294.418619	590294.677206	590295.375778	6.839982e-01	89	none	NaN	NaN
111	4	19	90	kitchen	sun_ahdycvpopffkzzsu.tif	590296.145329	590296.403921	590297.102386	7.423883e-01	80	none	NaN	NaN
111	4	20	70	kitchen	sun_abdxkyyxwfskuaqb.tif	590297.872041	590298.130629	590298.829011	8.341442e-01	60	none	NaN	NaN
111	4	21	81	kitchen	sun_aehawpgmrlhlvcow.tif	590299.598751	590299.857341	590300.555789	8.007784e-01	71	37	590301.384405	0
111	4	22	106	kitchen	sun_awcpdzzznmweyyhv.tif	590302.159619	590302.418213	590303.116642	8.091199e-01	96	none	NaN	NaN
111	4	23	93	kitchen	sun_ahspylgoovwmwvgk.tif	590303.886334	590304.144924	590304.843363	6.506325e-01	83	none	NaN	NaN
111	4	24	97	kitchen	sun_ajkqhtgcbgpcwrwn.tif	590305.613044	590305.871632	590306.570085	7.173640e-01	87	none	NaN	NaN
111	4	25	91	kitchen	sun_ahljzhgcdpomplvg.tif	590307.339748	590307.598345	590308.296727	7.257055e-01	81	none	NaN	NaN
111	4	26	96	kitchen	sun_ajcbwwvdlsvjyzje.tif	590309.066464	590309.325056	590310.023754	8.091199e-01	86	none	NaN	NaN
111	4	27	62	kitchen	labelme_kxvouciolcpqplr.tif	590310.793171	590311.051763	590311.750325	7.757541e-01	52	none	NaN	NaN
111	4	28	109	kitchen	sun_aypmqwcualkenuoe.tif	590312.519886	590312.778473	590313.476828	7.757541e-01	99	37	590314.544396	1
111	4	29	76	kitchen	sun_acwjdupvyjsugpay.tif	590315.322656	590315.581250	590316.279812	8.091199e-01	66	none	NaN	NaN
111	4	30	87	kitchen	sun_agorklincwxrdtga.tif	590317.049373	590317.307963	590318.006399	8.424856e-01	77	none	NaN	NaN
111	4	31	102	kitchen	sun_auaiucuqpdausiva.tif	590318.776081	590319.034669	590319.733229	8.341442e-01	92	none	NaN	NaN
111	4	32	110	kitchen	sun_azmutvzbxypaceni.tif	590320.502791	590320.761407	590321.459840	7.674127e-01	100	37	590323.224373	0
111	4	33	98	kitchen	sun_akchetnepxlcxhsu.tif	590323.997919	590324.256511	590324.955063	6.673154e-01	88	none	NaN	NaN
111	4	34	100	kitchen	sun_amjjdeyrggfqgmom.tif	590325.724628	590325.983218	590326.681773	7.340469e-01	90	37	590327.656608	1
111	4	35	107	kitchen	sun_axyyrmzcupyhlivc.tif	590328.427304	590328.685900	590329.384333	7.674127e-01	97	none	NaN	NaN
111	4	36	65	kitchen	sun_aamedkxepzlwuxes.tif	590330.154019	590330.412606	590331.111139	8.174613e-01	55	none	NaN	NaN
111	4	37	64	kitchen	sun_aadbddgrdsjugojn.tif	590331.880732	590332.139322	590332.837800	7.340469e-01	54	37	590333.744514	1
111	4	38	89	kitchen	sun_agzzivivdpnawacl.tif	590334.516674	590334.775268	590335.473821	8.424856e-01	79	none	NaN	NaN
111	4	39	103	kitchen	sun_aunzlwrbjumxhwdj.tif	590336.243380	590336.501977	590337.200340	6.839982e-01	93	none	NaN	NaN
111	4	40	71	kitchen	sun_abftihopvusyfakt.tif	590337.961757	590338.220346	590338.918759	7.423883e-01	61	none	NaN	NaN
111	4	41	83	kitchen	sun_aeqdocilnnpuvuhx.tif	590339.688466	590339.947053	590340.645529	6.506325e-01	73	none	NaN	NaN
111	4	42	73	kitchen	sun_abrcnpqqhmjwekyf.tif	590341.415177	590341.673763	590342.372315	6.506325e-01	63	none	NaN	NaN
111	4	43	84	kitchen	sun_aexklacwqwezaorf.tif	590343.141886	590343.400474	590344.098984	7.173640e-01	74	none	NaN	NaN
111	4	44	92	kitchen	sun_ahpczsiumwwocjkv.tif	590344.868600	590345.127181	590345.825656	7.674127e-01	82	none	NaN	NaN
111	4	45	82	kitchen	sun_aenotlpyftoioydp.tif	590346.595309	590346.853895	590347.552287	8.258028e-01	72	39	590348.992171	1
111	4	46	80	kitchen	sun_aegoxogugdkwpmpj.tif	590349.765112	590350.023700	590350.722207	6.923397e-01	70	none	NaN	NaN
111	4	47	61	kitchen	labelme_brsyyvweiuaazfr.tif	590351.491825	590351.750413	590352.448799	7.090226e-01	51	none	NaN	NaN
111	4	48	63	kitchen	labelme_rykdqxenmhulbdn.tif	590353.218535	590353.477121	590354.175530	8.174613e-01	53	37	590355.016470	1
111	4	49	67	kitchen	sun_aarfiyshqohlwkmo.tif	590355.787748	590356.046333	590356.744724	7.006811e-01	57	none	NaN	NaN
111	4	50	74	kitchen	sun_acfmftudsenhrfhy.tif	590357.514458	590357.773049	590358.471554	7.423883e-01	64	none	NaN	NaN
111	4	51	91	kitchen	sun_ahljzhgcdpomplvg.tif	590359.241165	590359.499759	590360.198215	7.924370e-01	81	none	NaN	NaN
111	4	52	85	kitchen	sun_afuyedyxivkhecmu.tif	590360.967881	590361.226466	590361.924830	8.258028e-01	75	none	NaN	NaN
111	4	53	78	kitchen	sun_adgqasybjyktddhj.tif	590362.694593	590362.953177	590363.651733	6.756568e-01	68	none	NaN	NaN
111	4	54	92	kitchen	sun_ahpczsiumwwocjkv.tif	590364.421297	590364.679889	590365.378354	6.589739e-01	82	none	NaN	NaN
111	4	55	87	kitchen	sun_agorklincwxrdtga.tif	590366.148011	590366.406601	590367.105099	8.258028e-01	77	none	NaN	NaN
111	4	56	102	kitchen	sun_auaiucuqpdausiva.tif	590367.874720	590368.133311	590368.831708	7.257055e-01	92	none	NaN	NaN
111	4	57	66	kitchen	sun_aapllqyqlykszopd.tif	590369.601433	590369.860026	590370.558384	8.007784e-01	56	37	590371.720534	0
111	4	58	106	kitchen	sun_awcpdzzznmweyyhv.tif	590372.495963	590372.754555	590373.453096	7.090226e-01	96	none	NaN	NaN
111	4	59	64	kitchen	sun_aadbddgrdsjugojn.tif	590374.222678	590374.481264	590375.179709	7.090226e-01	54	none	NaN	NaN
111	4	60	80	kitchen	sun_aegoxogugdkwpmpj.tif	590375.949390	590376.207974	590376.906551	6.673154e-01	70	none	NaN	NaN
111	4	61	73	kitchen	sun_abrcnpqqhmjwekyf.tif	590377.676096	590377.934684	590378.633061	7.674127e-01	63	none	NaN	NaN
111	4	62	105	kitchen	sun_avszsnwsbuqfgzbn.tif	590379.402806	590379.661399	590380.359894	7.423883e-01	95	none	NaN	NaN
111	4	63	62	kitchen	labelme_kxvouciolcpqplr.tif	590381.121177	590381.379762	590382.078119	7.173640e-01	52	none	NaN	NaN
111	4	64	89	kitchen	sun_agzzivivdpnawacl.tif	590382.839544	590383.098135	590383.796553	6.673154e-01	79	none	NaN	NaN
111	4	65	103	kitchen	sun_aunzlwrbjumxhwdj.tif	590384.566257	590384.824845	590385.523387	8.258028e-01	93	39	590386.784547	0
111	4	66	108	kitchen	sun_aymvwlarqodbwuoc.tif	590387.560886	590387.819478	590388.517927	8.424856e-01	98	none	NaN	NaN
111	4	67	72	kitchen	sun_abpwyqmlzafvklqo.tif	590389.287599	590389.546188	590390.244575	7.590712e-01	62	none	NaN	NaN
111	4	68	70	kitchen	sun_abdxkyyxwfskuaqb.tif	590391.014308	590391.272901	590391.971436	6.923397e-01	60	none	NaN	NaN
111	4	69	68	kitchen	sun_aaxxjlsuzvqlgylf.tif	590392.741021	590392.999616	590393.698038	6.756568e-01	58	37	590394.696583	1
111	4	70	110	kitchen	sun_azmutvzbxypaceni.tif	590395.468745	590395.727309	590396.425826	7.507298e-01	100	none	NaN	NaN
111	4	71	107	kitchen	sun_axyyrmzcupyhlivc.tif	590397.195432	590397.454021	590398.152450	6.923397e-01	97	none	NaN	NaN
111	4	72	97	kitchen	sun_ajkqhtgcbgpcwrwn.tif	590398.922145	590399.180731	590399.879222	7.340469e-01	87	none	NaN	NaN
111	4	73	65	kitchen	sun_aamedkxepzlwuxes.tif	590400.648857	590400.907443	590401.606003	7.590712e-01	55	37	590402.576322	0
111	4	74	99	kitchen	sun_akcjzhbbjlbogpdi.tif	590403.351532	590403.610117	590404.308521	6.839982e-01	89	none	NaN	NaN
111	4	75	94	kitchen	sun_ahywdevtimnqcsln.tif	590405.078239	590405.336835	590406.035318	7.840955e-01	84	none	NaN	NaN
111	4	76	83	kitchen	sun_aeqdocilnnpuvuhx.tif	590406.804948	590407.063543	590407.761954	8.341442e-01	73	none	NaN	NaN
111	4	77	86	kitchen	sun_aggjlwcdjsjcaemh.tif	590408.531663	590408.790252	590409.488746	6.673154e-01	76	none	NaN	NaN
111	4	78	95	kitchen	sun_aixorpehvfykdynp.tif	590410.258374	590410.516964	590411.215435	7.590712e-01	85	none	NaN	NaN
111	4	79	74	kitchen	sun_acfmftudsenhrfhy.tif	590411.985088	590412.243674	590412.942111	7.590712e-01	64	none	NaN	NaN
111	4	80	77	kitchen	sun_acxkpeoqbwcxfvip.tif	590413.711797	590413.970386	590414.668879	7.757541e-01	67	none	NaN	NaN
111	4	81	79	kitchen	sun_admlmbcdswaszruo.tif	590415.438505	590415.697097	590416.395647	7.924370e-01	69	none	NaN	NaN
111	4	82	84	kitchen	sun_aexklacwqwezaorf.tif	590417.165218	590417.423806	590418.122328	8.508271e-01	74	none	NaN	NaN
111	4	83	88	kitchen	sun_agubuxuukhzyzpdp.tif	590418.891926	590419.150516	590419.848945	7.924370e-01	78	none	NaN	NaN
111	4	84	109	kitchen	sun_aypmqwcualkenuoe.tif	590420.618633	590420.877223	590421.575591	8.424856e-01	99	none	NaN	NaN
111	4	85	63	kitchen	labelme_rykdqxenmhulbdn.tif	590422.345347	590422.603941	590423.302402	6.589739e-01	53	none	NaN	NaN
111	4	86	101	kitchen	sun_aqeaevwwwjoqhzvl.tif	590424.072059	590424.330645	590425.029063	8.341442e-01	91	none	NaN	NaN
111	4	87	93	kitchen	sun_ahspylgoovwmwvgk.tif	590425.798770	590426.057366	590426.755743	7.840955e-01	83	none	NaN	NaN
111	4	88	81	kitchen	sun_aehawpgmrlhlvcow.tif	590427.525478	590427.784068	590428.482594	7.340469e-01	71	none	NaN	NaN
111	4	89	90	kitchen	sun_ahdycvpopffkzzsu.tif	590429.252186	590429.510777	590430.209143	8.258028e-01	80	none	NaN	NaN
111	4	90	98	kitchen	sun_akchetnepxlcxhsu.tif	590430.978900	590431.237492	590431.935956	7.757541e-01	88	none	NaN	NaN
111	4	91	69	kitchen	sun_abdenxonkemggwsq.tif	590432.705610	590432.964201	590433.662641	6.923397e-01	59	none	NaN	NaN
111	4	92	96	kitchen	sun_ajcbwwvdlsvjyzje.tif	590434.432318	590434.690909	590435.389413	6.839982e-01	86	none	NaN	NaN
111	4	93	75	kitchen	sun_acgtpgfybqjmzeyw.tif	590436.159031	590436.417641	590437.116174	8.174613e-01	65	none	NaN	NaN
111	4	94	76	kitchen	sun_acwjdupvyjsugpay.tif	590437.885742	590438.144330	590438.842876	7.173640e-01	66	none	NaN	NaN
111	4	95	104	kitchen	sun_auticobqsbwgoppi.tif	590439.612453	590439.871040	590440.569593	8.007784e-01	94	none	NaN	NaN
111	4	96	82	kitchen	sun_aenotlpyftoioydp.tif	590441.339161	590441.597749	590442.296205	7.840955e-01	72	none	NaN	NaN
111	4	97	61	kitchen	labelme_brsyyvweiuaazfr.tif	590443.065872	590443.324461	590444.022866	7.006811e-01	51	none	NaN	NaN
111	4	98	71	kitchen	sun_abftihopvusyfakt.tif	590444.792586	590445.051171	590445.749728	6.589739e-01	61	none	NaN	NaN
111	4	99	67	kitchen	sun_aarfiyshqohlwkmo.tif	590446.519298	590446.777887	590447.476459	6.923397e-01	57	none	NaN	NaN
111	4	100	100	kitchen	sun_amjjdeyrggfqgmom.tif	590448.246009	590448.504598	590449.203019	7.507298e-01	90	none	NaN	NaN
111	5	1	47	bathroom	sun_apynckhmoftszqoq.tif	590456.637653	590456.896245	590457.603020	7.590712e-01	37	none	NaN	NaN
111	5	2	55	bathroom	sun_avhrdrntsqrjzccq.tif	590458.372703	590458.631295	590459.338067	6.506325e-01	45	39	590460.768383	1
111	5	3	45	bathroom	sun_apkxzenqapsujocq.tif	590461.542516	590461.801100	590462.507924	7.423883e-01	35	none	NaN	NaN
111	5	4	41	bathroom	sun_aoybiabnpadelefl.tif	590463.277566	590463.536150	590464.242899	7.090226e-01	31	none	NaN	NaN
111	5	5	21	bathroom	sun_aggnnqpdorgxpvce.tif	590465.012612	590465.271208	590465.977987	7.173640e-01	11	none	NaN	NaN
111	5	6	36	bathroom	sun_ambriybtogmepttm.tif	590466.747665	590467.006253	590467.712999	8.508271e-01	26	none	NaN	NaN
111	5	7	24	bathroom	sun_agrwbmhcpmfuwmsg.tif	590468.482712	590468.741310	590469.448073	6.756568e-01	14	none	NaN	NaN
111	5	8	37	bathroom	sun_amzlamotzwfkwjco.tif	590470.217771	590470.476359	590471.183334	7.006811e-01	27	none	NaN	NaN
111	5	9	20	bathroom	sun_afcoljnjfoxjtgja.tif	590471.952819	590472.211416	590472.918186	7.257055e-01	10	none	NaN	NaN
111	5	10	40	bathroom	sun_aofnryafpsjimzsb.tif	590473.687875	590473.946467	590474.653337	7.507298e-01	30	none	NaN	NaN
111	5	11	42	bathroom	sun_apeeialkgkuxddgh.tif	590475.422932	590475.681515	590476.388404	8.091199e-01	32	none	NaN	NaN
111	5	12	13	bathroom	sun_aavhrsfjbserjtht.tif	590477.157983	590477.416573	590478.123296	8.174613e-01	3	none	NaN	NaN
111	5	13	11	bathroom	labelme_sfxiulhjbhlyiyt.tif	590478.893034	590479.151625	590479.858325	7.257055e-01	1	none	NaN	NaN
111	5	14	34	bathroom	sun_alkosphxlxwjwgjd.tif	590480.628085	590480.886674	590481.593393	6.589739e-01	24	37	590482.640499	1
111	5	15	51	bathroom	sun_atstyziqcmkahyxk.tif	590483.414179	590483.672768	590484.379604	7.257055e-01	41	39	590485.848523	1
111	5	16	32	bathroom	sun_aleqenyvunhactkl.tif	590486.625691	590486.884280	590487.591052	7.840955e-01	22	none	NaN	NaN
111	5	17	26	bathroom	sun_ahaulkltgpkeeemi.tif	590488.360747	590488.619336	590489.326049	7.924370e-01	16	none	NaN	NaN
111	5	18	33	bathroom	sun_aljolscmmzydegqp.tif	590490.095797	590490.354388	590491.061148	7.006811e-01	23	37	590492.192418	1
111	5	19	28	bathroom	sun_ahijqszoswveeyji.tif	590492.965303	590493.223898	590493.930590	7.006811e-01	18	none	NaN	NaN
111	5	20	19	bathroom	sun_aclfzgynxzxlbepz.tif	590494.700361	590494.958953	590495.665786	7.590712e-01	9	none	NaN	NaN
111	5	21	35	bathroom	sun_alotolagknyrgtsk.tif	590496.435410	590496.693996	590497.400793	7.173640e-01	25	none	NaN	NaN
111	5	22	58	bathroom	sun_axxbkopsgyouuebh.tif	590498.170465	590498.429051	590499.135911	8.508271e-01	48	none	NaN	NaN
111	5	23	27	bathroom	sun_ahcvzmoyaycdoftf.tif	590499.905514	590500.164104	590500.871011	7.173640e-01	17	none	NaN	NaN
111	5	24	23	bathroom	sun_aghyqhbptboemmoq.tif	590501.640570	590501.899156	590502.605983	8.091199e-01	13	none	NaN	NaN
111	5	25	56	bathroom	sun_awnqiikzaispgmwo.tif	590503.375616	590503.634211	590504.340964	8.174613e-01	46	none	NaN	NaN
111	5	26	15	bathroom	sun_abjtwfukuwddzted.tif	590505.110670	590505.369264	590506.076030	7.423883e-01	5	none	NaN	NaN
111	5	27	48	bathroom	sun_aqrpegblszgcoujh.tif	590506.845725	590507.104314	590507.811157	8.424856e-01	38	none	NaN	NaN
111	5	28	18	bathroom	sun_acgyywnybuveqsro.tif	590508.580775	590508.839360	590509.546200	8.174613e-01	8	none	NaN	NaN
111	5	29	60	bathroom	sun_azqyogdvyhahyram.tif	590510.315829	590510.574420	590511.281313	8.007784e-01	50	none	NaN	NaN
111	5	30	46	bathroom	sun_apmqjbnwghzuhhzh.tif	590512.050880	590512.309466	590513.016336	6.756568e-01	36	none	NaN	NaN
111	5	31	30	bathroom	sun_ajlawzvmubibwbpy.tif	590513.785928	590514.044526	590514.751308	6.589739e-01	20	none	NaN	NaN
111	5	32	31	bathroom	sun_akiytfaagpdsphgz.tif	590515.520980	590515.779576	590516.486282	8.424856e-01	21	none	NaN	NaN
111	5	33	16	bathroom	sun_acduarbnmmoglmiv.tif	590517.256037	590517.514625	590518.221520	6.673154e-01	6	none	NaN	NaN
111	5	34	29	bathroom	sun_ahqjwnzgolcaoidx.tif	590518.991090	590519.249681	590519.956576	7.090226e-01	19	39	590521.720348	1
111	5	35	49	bathroom	sun_asfwthctfqerjvxr.tif	590522.494556	590522.753147	590523.460017	7.674127e-01	39	none	NaN	NaN
111	5	36	43	bathroom	sun_apjevzvycyhuqghb.tif	590524.229611	590524.488199	590525.195102	8.007784e-01	33	none	NaN	NaN
111	5	37	22	bathroom	sun_agguqiubmwhqqunb.tif	590525.964662	590526.223255	590526.930163	7.006811e-01	12	none	NaN	NaN
111	5	38	17	bathroom	sun_acegryoqftbzowsg.tif	590527.699714	590527.958302	590528.665080	6.673154e-01	7	none	NaN	NaN
111	5	39	44	bathroom	sun_apkruvsevgegsdwp.tif	590529.434765	590529.693355	590530.400118	7.757541e-01	34	37	590532.040228	0
111	5	40	52	bathroom	sun_aunuadmjocsddsrl.tif	590532.813115	590533.071702	590533.778503	8.007784e-01	42	none	NaN	NaN
111	5	41	59	bathroom	sun_axyrejkiiaqiurjk.tif	590534.548164	590534.806758	590535.513660	8.007784e-01	49	none	NaN	NaN
111	5	42	53	bathroom	sun_ausgutylgojavyoq.tif	590536.283216	590536.541811	590537.248523	7.090226e-01	43	none	NaN	NaN
111	5	43	12	bathroom	sun_aapitsgbtktqubfy.tif	590538.018271	590538.276865	590538.983666	6.589739e-01	2	none	NaN	NaN
111	5	44	25	bathroom	sun_agyqfjcfkdcydepw.tif	590539.753325	590540.011911	590540.718803	7.674127e-01	15	none	NaN	NaN
111	5	45	14	bathroom	sun_abapwbhyhkfixyex.tif	590541.488375	590541.746961	590542.453697	7.590712e-01	4	none	NaN	NaN
111	5	46	54	bathroom	sun_auzqhkafidnkrwmo.tif	590543.223429	590543.482017	590544.188722	8.091199e-01	44	none	NaN	NaN
111	5	47	39	bathroom	sun_anryaplzeujmzfkd.tif	590544.958478	590545.217068	590545.923775	7.840955e-01	29	none	NaN	NaN
111	5	48	38	bathroom	sun_anhioqovhscjqqwb.tif	590546.693532	590546.952120	590547.658968	6.756568e-01	28	none	NaN	NaN
111	5	49	57	bathroom	sun_axldvoqbuvuggfmq.tif	590548.428583	590548.687172	590549.393979	7.757541e-01	47	none	NaN	NaN
111	5	50	50	bathroom	sun_aspsyogrekjtfozg.tif	590550.163636	590550.422224	590551.128987	8.091199e-01	40	none	NaN	NaN
111	5	51	50	bathroom	sun_aspsyogrekjtfozg.tif	590551.898687	590552.157275	590552.864032	7.674127e-01	40	none	NaN	NaN
111	5	52	58	bathroom	sun_axxbkopsgyouuebh.tif	590553.633739	590553.892329	590554.599223	8.258028e-01	48	none	NaN	NaN
111	5	53	13	bathroom	sun_aavhrsfjbserjtht.tif	590555.368795	590555.627383	590556.334264	8.258028e-01	3	none	NaN	NaN
111	5	54	28	bathroom	sun_ahijqszoswveeyji.tif	590557.103839	590557.362434	590558.069286	7.423883e-01	18	none	NaN	NaN
111	5	55	31	bathroom	sun_akiytfaagpdsphgz.tif	590558.838897	590559.097483	590559.804202	7.590712e-01	21	none	NaN	NaN
111	5	56	14	bathroom	sun_abapwbhyhkfixyex.tif	590560.573951	590560.832537	590561.539390	8.341442e-01	4	none	NaN	NaN
111	5	57	26	bathroom	sun_ahaulkltgpkeeemi.tif	590562.309000	590562.567589	590563.274467	7.340469e-01	16	none	NaN	NaN
111	5	58	45	bathroom	sun_apkxzenqapsujocq.tif	590564.044055	590564.302643	590565.009369	8.258028e-01	35	none	NaN	NaN
111	5	59	52	bathroom	sun_aunuadmjocsddsrl.tif	590565.779101	590566.037694	590566.744525	7.840955e-01	42	none	NaN	NaN
111	5	60	15	bathroom	sun_abjtwfukuwddzted.tif	590567.514157	590567.772750	590568.479564	8.424856e-01	5	none	NaN	NaN
111	5	61	42	bathroom	sun_apeeialkgkuxddgh.tif	590569.249215	590569.507803	590570.214508	8.341442e-01	32	none	NaN	NaN
111	5	62	32	bathroom	sun_aleqenyvunhactkl.tif	590570.984261	590571.242852	590571.949661	8.341442e-01	22	none	NaN	NaN
111	5	63	34	bathroom	sun_alkosphxlxwjwgjd.tif	590572.719314	590572.977899	590573.684638	7.757541e-01	24	none	NaN	NaN
111	5	64	16	bathroom	sun_acduarbnmmoglmiv.tif	590574.454365	590574.712956	590575.419823	8.258028e-01	6	none	NaN	NaN
111	5	65	44	bathroom	sun_apkruvsevgegsdwp.tif	590576.189384	590576.448006	590577.154728	7.590712e-01	34	none	NaN	NaN
111	5	66	36	bathroom	sun_ambriybtogmepttm.tif	590577.924464	590578.183057	590578.889785	7.507298e-01	26	none	NaN	NaN
111	5	67	27	bathroom	sun_ahcvzmoyaycdoftf.tif	590579.659519	590579.918111	590580.624893	6.839982e-01	17	none	NaN	NaN
111	5	68	33	bathroom	sun_aljolscmmzydegqp.tif	590581.394577	590581.653166	590582.360065	8.174613e-01	23	37	590583.480488	0
111	5	69	49	bathroom	sun_asfwthctfqerjvxr.tif	590584.255743	590584.514334	590585.221107	6.923397e-01	39	none	NaN	NaN
111	5	70	46	bathroom	sun_apmqjbnwghzuhhzh.tif	590585.990799	590586.249386	590586.956108	6.589739e-01	36	39	590588.048644	1
111	5	71	60	bathroom	sun_azqyogdvyhahyram.tif	590588.826932	590589.085524	590589.792324	6.923397e-01	50	37	590590.760527	1
111	5	72	56	bathroom	sun_awnqiikzaispgmwo.tif	590591.537953	590591.796545	590592.503265	8.341442e-01	46	none	NaN	NaN
111	5	73	53	bathroom	sun_ausgutylgojavyoq.tif	590593.273020	590593.531592	590594.238312	7.924370e-01	43	none	NaN	NaN
111	5	74	12	bathroom	sun_aapitsgbtktqubfy.tif	590595.008058	590595.266651	590595.973542	7.924370e-01	2	none	NaN	NaN
111	5	75	38	bathroom	sun_anhioqovhscjqqwb.tif	590596.743112	590597.001701	590597.708473	6.923397e-01	28	none	NaN	NaN
111	5	76	47	bathroom	sun_apynckhmoftszqoq.tif	590598.478163	590598.736754	590599.443647	6.923397e-01	37	none	NaN	NaN
111	5	77	55	bathroom	sun_avhrdrntsqrjzccq.tif	590600.213211	590600.471806	590601.178662	6.839982e-01	45	none	NaN	NaN
111	5	78	29	bathroom	sun_ahqjwnzgolcaoidx.tif	590601.948274	590602.206875	590602.913651	8.424856e-01	19	none	NaN	NaN
111	5	79	20	bathroom	sun_afcoljnjfoxjtgja.tif	590603.683322	590603.941908	590604.648656	7.840955e-01	10	37	590605.456358	1
111	5	80	59	bathroom	sun_axyrejkiiaqiurjk.tif	590606.227503	590606.486097	590607.192862	6.506325e-01	49	none	NaN	NaN
111	5	81	39	bathroom	sun_anryaplzeujmzfkd.tif	590607.962558	590608.221147	590608.927964	7.257055e-01	29	none	NaN	NaN
111	5	82	18	bathroom	sun_acgyywnybuveqsro.tif	590609.697613	590609.956204	590610.663027	7.340469e-01	8	none	NaN	NaN
111	5	83	21	bathroom	sun_aggnnqpdorgxpvce.tif	590611.432664	590611.691255	590612.397968	7.090226e-01	11	none	NaN	NaN
111	5	84	37	bathroom	sun_amzlamotzwfkwjco.tif	590613.167718	590613.426301	590614.133174	7.173640e-01	27	39	590615.256437	1
111	5	85	11	bathroom	labelme_sfxiulhjbhlyiyt.tif	590616.028884	590616.287474	590616.994218	7.340469e-01	1	39	590620.736487	0
111	5	86	35	bathroom	sun_alotolagknyrgtsk.tif	590621.509314	590621.767904	590622.474598	7.507298e-01	25	37	590623.192532	1
111	5	87	30	bathroom	sun_ajlawzvmubibwbpy.tif	590623.970080	590624.228675	590624.935365	7.674127e-01	20	none	NaN	NaN
111	5	88	57	bathroom	sun_axldvoqbuvuggfmq.tif	590625.696800	590625.955390	590626.662247	6.839982e-01	47	none	NaN	NaN
111	5	89	22	bathroom	sun_agguqiubmwhqqunb.tif	590627.431849	590627.690438	590628.397170	6.756568e-01	12	none	NaN	NaN
111	5	90	19	bathroom	sun_aclfzgynxzxlbepz.tif	590629.166898	590629.425491	590630.132349	7.340469e-01	9	none	NaN	NaN
111	5	91	25	bathroom	sun_agyqfjcfkdcydepw.tif	590630.901952	590631.160542	590631.867351	6.673154e-01	15	37	590632.848548	1
111	5	92	43	bathroom	sun_apjevzvycyhuqghb.tif	590633.621311	590633.879900	590634.586699	6.673154e-01	33	none	NaN	NaN
111	5	93	54	bathroom	sun_auzqhkafidnkrwmo.tif	590635.356364	590635.614955	590636.321717	7.757541e-01	44	none	NaN	NaN
111	5	94	51	bathroom	sun_atstyziqcmkahyxk.tif	590637.091417	590637.350005	590638.056826	7.423883e-01	41	none	NaN	NaN
111	5	95	24	bathroom	sun_agrwbmhcpmfuwmsg.tif	590638.826466	590639.085055	590639.791830	6.839982e-01	14	none	NaN	NaN
111	5	96	23	bathroom	sun_aghyqhbptboemmoq.tif	590640.561520	590640.820110	590641.526987	6.923397e-01	13	39	590642.464397	1
111	5	97	40	bathroom	sun_aofnryafpsjimzsb.tif	590643.239171	590643.497758	590644.204606	6.506325e-01	30	none	NaN	NaN
111	5	98	41	bathroom	sun_aoybiabnpadelefl.tif	590644.974227	590645.232814	590645.939646	7.507298e-01	31	none	NaN	NaN
111	5	99	48	bathroom	sun_aqrpegblszgcoujh.tif	590646.709276	590646.967869	590647.674766	7.924370e-01	38	none	NaN	NaN
111	5	100	17	bathroom	sun_acegryoqftbzowsg.tif	590648.444328	590648.702917	590649.409693	8.258028e-01	7	none	NaN	NaN
111	6	1	64	kitchen	sun_aadbddgrdsjugojn.tif	590662.541631	590662.800218	590663.540332	8.424856e-01	54	none	NaN	NaN
111	6	2	81	kitchen	sun_aehawpgmrlhlvcow.tif	590664.310046	590664.568637	590665.308817	7.090226e-01	71	none	NaN	NaN
111	6	3	108	kitchen	sun_aymvwlarqodbwuoc.tif	590666.078469	590666.337057	590667.077187	6.839982e-01	98	none	NaN	NaN
111	6	4	65	kitchen	sun_aamedkxepzlwuxes.tif	590667.846884	590668.105465	590668.845539	8.258028e-01	55	none	NaN	NaN
111	6	5	87	kitchen	sun_agorklincwxrdtga.tif	590669.615301	590669.873897	590670.614644	8.174613e-01	77	none	NaN	NaN
111	6	6	90	kitchen	sun_ahdycvpopffkzzsu.tif	590671.383721	590671.642311	590672.382499	7.507298e-01	80	none	NaN	NaN
111	6	7	99	kitchen	sun_akcjzhbbjlbogpdi.tif	590673.152141	590673.410730	590674.150868	7.674127e-01	89	39	590676.192588	1
111	6	8	93	kitchen	sun_ahspylgoovwmwvgk.tif	590676.964246	590677.222837	590677.962954	7.006811e-01	83	none	NaN	NaN
111	6	9	62	kitchen	labelme_kxvouciolcpqplr.tif	590678.732668	590678.991261	590679.731459	6.673154e-01	52	none	NaN	NaN
111	6	10	69	kitchen	sun_abdenxonkemggwsq.tif	590680.501084	590680.759682	590681.499859	6.839982e-01	59	none	NaN	NaN
111	6	11	98	kitchen	sun_akchetnepxlcxhsu.tif	590682.269506	590682.528094	590683.268286	7.840955e-01	88	none	NaN	NaN
111	6	12	106	kitchen	sun_awcpdzzznmweyyhv.tif	590684.037924	590684.296511	590685.036708	7.924370e-01	96	none	NaN	NaN
111	6	13	109	kitchen	sun_aypmqwcualkenuoe.tif	590685.806341	590686.064930	590686.805055	6.923397e-01	99	none	NaN	NaN
111	6	14	100	kitchen	sun_amjjdeyrggfqgmom.tif	590687.574758	590687.833349	590688.573481	7.173640e-01	90	none	NaN	NaN
111	6	15	89	kitchen	sun_agzzivivdpnawacl.tif	590689.343178	590689.601766	590690.341855	8.258028e-01	79	none	NaN	NaN
111	6	16	103	kitchen	sun_aunzlwrbjumxhwdj.tif	590691.111600	590691.370189	590692.110442	6.923397e-01	93	none	NaN	NaN
111	6	17	78	kitchen	sun_adgqasybjyktddhj.tif	590692.880019	590693.138605	590693.878854	8.341442e-01	68	none	NaN	NaN
111	6	18	68	kitchen	sun_aaxxjlsuzvqlgylf.tif	590694.648436	590694.907028	590695.647272	8.258028e-01	58	none	NaN	NaN
111	6	19	71	kitchen	sun_abftihopvusyfakt.tif	590696.416853	590696.675445	590697.415509	7.090226e-01	61	none	NaN	NaN
111	6	20	105	kitchen	sun_avszsnwsbuqfgzbn.tif	590698.176928	590698.435527	590699.175577	6.506325e-01	95	37	590700.272471	0
111	6	21	73	kitchen	sun_abrcnpqqhmjwekyf.tif	590701.046438	590701.305033	590702.045277	7.590712e-01	63	none	NaN	NaN
111	6	22	67	kitchen	sun_aarfiyshqohlwkmo.tif	590702.814858	590703.073446	590703.813714	7.757541e-01	57	none	NaN	NaN
111	6	23	86	kitchen	sun_aggjlwcdjsjcaemh.tif	590704.583274	590704.841868	590705.582051	8.007784e-01	76	none	NaN	NaN
111	6	24	74	kitchen	sun_acfmftudsenhrfhy.tif	590706.351695	590706.610279	590707.350459	6.589739e-01	64	none	NaN	NaN
111	6	25	66	kitchen	sun_aapllqyqlykszopd.tif	590708.120116	590708.378703	590709.118898	7.173640e-01	56	none	NaN	NaN
111	6	26	95	kitchen	sun_aixorpehvfykdynp.tif	590709.888535	590710.147120	590710.887333	7.590712e-01	85	none	NaN	NaN
111	6	27	70	kitchen	sun_abdxkyyxwfskuaqb.tif	590711.656951	590711.915538	590712.655814	8.341442e-01	60	39	590713.872419	1
111	6	28	75	kitchen	sun_acgtpgfybqjmzeyw.tif	590714.643240	590714.901837	590715.642071	8.424856e-01	65	none	NaN	NaN
111	6	29	94	kitchen	sun_ahywdevtimnqcsln.tif	590716.411660	590716.670253	590717.410390	7.423883e-01	84	none	NaN	NaN
111	6	30	85	kitchen	sun_afuyedyxivkhecmu.tif	590718.180081	590718.438671	590719.178733	7.840955e-01	75	none	NaN	NaN
111	6	31	107	kitchen	sun_axyyrmzcupyhlivc.tif	590719.948497	590720.207085	590720.947193	8.174613e-01	97	none	NaN	NaN
111	6	32	91	kitchen	sun_ahljzhgcdpomplvg.tif	590721.716919	590721.975502	590722.715750	7.257055e-01	81	none	NaN	NaN
111	6	33	96	kitchen	sun_ajcbwwvdlsvjyzje.tif	590723.485331	590723.743925	590724.484077	7.757541e-01	86	37	590725.712406	0
111	6	34	82	kitchen	sun_aenotlpyftoioydp.tif	590726.488304	590726.746898	590727.487131	7.590712e-01	72	37	590728.816349	1
111	6	35	102	kitchen	sun_auaiucuqpdausiva.tif	590729.591383	590729.849973	590730.590087	8.007784e-01	92	37	590731.296390	1
111	6	36	72	kitchen	sun_abpwyqmlzafvklqo.tif	590732.068841	590732.327426	590733.067510	7.257055e-01	62	none	NaN	NaN
111	6	37	84	kitchen	sun_aexklacwqwezaorf.tif	590733.828915	590734.087508	590734.827644	7.674127e-01	74	39	590735.768576	1
111	6	38	101	kitchen	sun_aqeaevwwwjoqhzvl.tif	590736.539934	590736.798527	590737.538780	7.674127e-01	91	none	NaN	NaN
111	6	39	110	kitchen	sun_azmutvzbxypaceni.tif	590738.308352	590738.566939	590739.307125	6.589739e-01	100	none	NaN	NaN
111	6	40	83	kitchen	sun_aeqdocilnnpuvuhx.tif	590740.076771	590740.335358	590741.075609	8.007784e-01	73	none	NaN	NaN
111	6	41	77	kitchen	sun_acxkpeoqbwcxfvip.tif	590741.845189	590742.103778	590742.844050	8.258028e-01	67	none	NaN	NaN
111	6	42	63	kitchen	labelme_rykdqxenmhulbdn.tif	590743.613605	590743.872202	590744.612420	6.506325e-01	53	none	NaN	NaN
111	6	43	80	kitchen	sun_aegoxogugdkwpmpj.tif	590745.382027	590745.640617	590746.380882	7.090226e-01	70	none	NaN	NaN
111	6	44	79	kitchen	sun_admlmbcdswaszruo.tif	590747.150460	590747.409033	590748.149258	7.924370e-01	69	37	590748.920376	1
111	6	45	61	kitchen	labelme_brsyyvweiuaazfr.tif	590749.694631	590749.953222	590750.693422	7.006811e-01	51	none	NaN	NaN
111	6	46	97	kitchen	sun_ajkqhtgcbgpcwrwn.tif	590751.463053	590751.721640	590752.461905	7.090226e-01	87	none	NaN	NaN
111	6	47	88	kitchen	sun_agubuxuukhzyzpdp.tif	590753.231472	590753.490059	590754.230330	7.340469e-01	78	none	NaN	NaN
111	6	48	104	kitchen	sun_auticobqsbwgoppi.tif	590754.999883	590755.258478	590755.998740	7.757541e-01	94	none	NaN	NaN
111	6	49	76	kitchen	sun_acwjdupvyjsugpay.tif	590756.768310	590757.026897	590757.767085	7.590712e-01	66	none	NaN	NaN
111	6	50	92	kitchen	sun_ahpczsiumwwocjkv.tif	590758.536726	590758.795318	590759.535424	7.173640e-01	82	none	NaN	NaN
111	6	51	105	kitchen	sun_avszsnwsbuqfgzbn.tif	590760.305144	590760.563727	590761.303867	8.258028e-01	95	none	NaN	NaN
111	6	52	92	kitchen	sun_ahpczsiumwwocjkv.tif	590762.073562	590762.332149	590763.072210	8.341442e-01	82	none	NaN	NaN
111	6	53	83	kitchen	sun_aeqdocilnnpuvuhx.tif	590763.841981	590764.100566	590764.840638	7.340469e-01	73	none	NaN	NaN
111	6	54	94	kitchen	sun_ahywdevtimnqcsln.tif	590765.610397	590765.868988	590766.609200	8.091199e-01	84	none	NaN	NaN
111	6	55	101	kitchen	sun_aqeaevwwwjoqhzvl.tif	590767.378818	590767.637406	590768.377592	7.006811e-01	91	none	NaN	NaN
111	6	56	81	kitchen	sun_aehawpgmrlhlvcow.tif	590769.147241	590769.405820	590770.145941	6.839982e-01	71	none	NaN	NaN
111	6	57	87	kitchen	sun_agorklincwxrdtga.tif	590770.915655	590771.174243	590771.914351	8.091199e-01	77	none	NaN	NaN
111	6	58	89	kitchen	sun_agzzivivdpnawacl.tif	590772.684073	590772.942667	590773.682830	7.257055e-01	79	none	NaN	NaN
111	6	59	74	kitchen	sun_acfmftudsenhrfhy.tif	590774.452492	590774.711081	590775.451182	8.007784e-01	64	none	NaN	NaN
111	6	60	67	kitchen	sun_aarfiyshqohlwkmo.tif	590776.220909	590776.479505	590777.219685	6.923397e-01	57	none	NaN	NaN
111	6	61	63	kitchen	labelme_rykdqxenmhulbdn.tif	590777.989326	590778.247918	590778.988097	6.673154e-01	53	none	NaN	NaN
111	6	62	84	kitchen	sun_aexklacwqwezaorf.tif	590779.757747	590780.016339	590780.756516	6.589739e-01	74	none	NaN	NaN
111	6	63	103	kitchen	sun_aunzlwrbjumxhwdj.tif	590781.526167	590781.784761	590782.524926	6.923397e-01	93	37	590783.792558	1
111	6	64	91	kitchen	sun_ahljzhgcdpomplvg.tif	590784.570848	590784.829437	590785.569529	6.923397e-01	81	none	NaN	NaN
111	6	65	62	kitchen	labelme_kxvouciolcpqplr.tif	590786.339274	590786.597855	590787.337982	7.423883e-01	52	37	590788.536641	0
111	6	66	106	kitchen	sun_awcpdzzznmweyyhv.tif	590789.308873	590789.567466	590790.307669	6.673154e-01	96	none	NaN	NaN
111	6	67	68	kitchen	sun_aaxxjlsuzvqlgylf.tif	590791.077293	590791.335885	590792.075958	7.507298e-01	58	none	NaN	NaN
111	6	68	65	kitchen	sun_aamedkxepzlwuxes.tif	590792.845714	590793.104299	590793.844461	7.340469e-01	55	none	NaN	NaN
111	6	69	96	kitchen	sun_ajcbwwvdlsvjyzje.tif	590794.614130	590794.872703	590795.612799	7.006811e-01	86	none	NaN	NaN
111	6	70	110	kitchen	sun_azmutvzbxypaceni.tif	590796.382549	590796.641141	590797.381251	8.424856e-01	100	none	NaN	NaN
111	6	71	77	kitchen	sun_acxkpeoqbwcxfvip.tif	590798.150968	590798.409560	590799.149720	8.508271e-01	67	37	590800.328499	0
111	6	72	86	kitchen	sun_aggjlwcdjsjcaemh.tif	590801.103898	590801.362482	590802.102762	7.924370e-01	76	none	NaN	NaN
111	6	73	64	kitchen	sun_aadbddgrdsjugojn.tif	590802.872313	590803.130901	590803.871158	6.756568e-01	54	none	NaN	NaN
111	6	74	76	kitchen	sun_acwjdupvyjsugpay.tif	590804.640731	590804.899319	590805.639467	8.174613e-01	66	none	NaN	NaN
111	6	75	104	kitchen	sun_auticobqsbwgoppi.tif	590806.409152	590806.667739	590807.407819	8.508271e-01	94	none	NaN	NaN
111	6	76	95	kitchen	sun_aixorpehvfykdynp.tif	590808.177570	590808.436156	590809.176289	7.507298e-01	85	none	NaN	NaN
111	6	77	109	kitchen	sun_aypmqwcualkenuoe.tif	590809.945984	590810.204575	590810.944838	8.341442e-01	99	none	NaN	NaN
111	6	78	108	kitchen	sun_aymvwlarqodbwuoc.tif	590811.714407	590811.972996	590812.713111	6.756568e-01	98	37	590813.552240	1
111	6	79	100	kitchen	sun_amjjdeyrggfqgmom.tif	590814.325324	590814.583912	590815.324106	7.590712e-01	90	none	NaN	NaN
111	6	80	99	kitchen	sun_akcjzhbbjlbogpdi.tif	590816.093742	590816.352332	590817.092522	6.589739e-01	89	none	NaN	NaN
111	6	81	70	kitchen	sun_abdxkyyxwfskuaqb.tif	590817.862161	590818.120754	590818.860862	7.173640e-01	60	none	NaN	NaN
111	6	82	75	kitchen	sun_acgtpgfybqjmzeyw.tif	590819.630579	590819.889166	590820.629232	6.673154e-01	65	37	590821.656489	1
111	6	83	90	kitchen	sun_ahdycvpopffkzzsu.tif	590822.433354	590822.691946	590823.432202	6.756568e-01	80	none	NaN	NaN
111	6	84	97	kitchen	sun_ajkqhtgcbgpcwrwn.tif	590824.201782	590824.460364	590825.200459	6.839982e-01	87	none	NaN	NaN
111	6	85	88	kitchen	sun_agubuxuukhzyzpdp.tif	590825.970195	590826.228783	590826.969022	6.506325e-01	78	none	NaN	NaN
111	6	86	80	kitchen	sun_aegoxogugdkwpmpj.tif	590827.738615	590827.997201	590828.737310	8.091199e-01	70	none	NaN	NaN
111	6	87	82	kitchen	sun_aenotlpyftoioydp.tif	590829.507035	590829.765621	590830.505746	7.257055e-01	72	none	NaN	NaN
111	6	88	102	kitchen	sun_auaiucuqpdausiva.tif	590831.275450	590831.534041	590832.274247	7.924370e-01	92	37	590833.952407	0
111	6	89	66	kitchen	sun_aapllqyqlykszopd.tif	590834.728869	590834.987460	590835.727691	7.840955e-01	56	none	NaN	NaN
111	6	90	78	kitchen	sun_adgqasybjyktddhj.tif	590836.497292	590836.755878	590837.496069	8.091199e-01	68	none	NaN	NaN
111	6	91	61	kitchen	labelme_brsyyvweiuaazfr.tif	590838.265705	590838.524298	590839.264417	8.174613e-01	51	none	NaN	NaN
111	6	92	79	kitchen	sun_admlmbcdswaszruo.tif	590840.034126	590840.292720	590841.032801	8.424856e-01	69	37	590842.032497	1
111	6	93	73	kitchen	sun_abrcnpqqhmjwekyf.tif	590842.803537	590843.062130	590843.802291	7.674127e-01	63	none	NaN	NaN
111	6	94	69	kitchen	sun_abdenxonkemggwsq.tif	590844.571955	590844.830547	590845.570810	6.756568e-01	59	none	NaN	NaN
111	6	95	98	kitchen	sun_akchetnepxlcxhsu.tif	590846.340378	590846.598963	590847.339156	7.757541e-01	88	none	NaN	NaN
111	6	96	107	kitchen	sun_axyyrmzcupyhlivc.tif	590848.108792	590848.367385	590849.107459	7.840955e-01	97	none	NaN	NaN
111	6	97	71	kitchen	sun_abftihopvusyfakt.tif	590849.877214	590850.135798	590850.876010	7.507298e-01	61	none	NaN	NaN
111	6	98	85	kitchen	sun_afuyedyxivkhecmu.tif	590851.645631	590851.904217	590852.644322	7.340469e-01	75	none	NaN	NaN
111	6	99	93	kitchen	sun_ahspylgoovwmwvgk.tif	590853.414049	590853.672635	590854.412915	7.423883e-01	83	none	NaN	NaN
111	6	100	72	kitchen	sun_abpwyqmlzafvklqo.tif	590855.182466	590855.441057	590856.181294	7.423883e-01	62	none	NaN	NaN
111	7	1	30	bathroom	sun_ajlawzvmubibwbpy.tif	590887.197519	590887.456107	590888.146133	6.673154e-01	20	37	590889.408487	1
111	7	2	24	bathroom	sun_agrwbmhcpmfuwmsg.tif	590890.183810	590890.442399	590891.132458	7.423883e-01	14	none	NaN	NaN
111	7	3	18	bathroom	sun_acgyywnybuveqsro.tif	590891.902177	590892.160766	590892.850899	7.674127e-01	8	none	NaN	NaN
111	7	4	11	bathroom	labelme_sfxiulhjbhlyiyt.tif	590893.620550	590893.879154	590894.569298	7.507298e-01	1	none	NaN	NaN
111	7	5	36	bathroom	sun_ambriybtogmepttm.tif	590895.338911	590895.597506	590896.287541	7.840955e-01	26	none	NaN	NaN
111	7	6	59	bathroom	sun_axyrejkiiaqiurjk.tif	590897.057283	590897.315868	590898.005982	8.007784e-01	49	39	590899.648568	1
111	7	7	41	bathroom	sun_aoybiabnpadelefl.tif	590900.418947	590900.677537	590901.367697	7.006811e-01	31	none	NaN	NaN
111	7	8	27	bathroom	sun_ahcvzmoyaycdoftf.tif	590902.137316	590902.395907	590903.086097	7.340469e-01	17	none	NaN	NaN
111	7	9	33	bathroom	sun_aljolscmmzydegqp.tif	590903.855687	590904.114274	590904.804422	7.423883e-01	23	none	NaN	NaN
111	7	10	19	bathroom	sun_aclfzgynxzxlbepz.tif	590905.574058	590905.832641	590906.522787	6.756568e-01	9	none	NaN	NaN
111	7	11	50	bathroom	sun_aspsyogrekjtfozg.tif	590907.292424	590907.551013	590908.241151	7.507298e-01	40	none	NaN	NaN
111	7	12	25	bathroom	sun_agyqfjcfkdcydepw.tif	590909.010790	590909.269383	590909.959533	6.506325e-01	15	37	590910.920368	1
111	7	13	48	bathroom	sun_aqrpegblszgcoujh.tif	590911.696785	590911.955376	590912.645451	8.007784e-01	38	none	NaN	NaN
111	7	14	52	bathroom	sun_aunuadmjocsddsrl.tif	590913.415158	590913.673745	590914.363925	8.341442e-01	42	none	NaN	NaN
111	7	15	45	bathroom	sun_apkxzenqapsujocq.tif	590915.133523	590915.392116	590916.082167	7.924370e-01	35	none	NaN	NaN
111	7	16	54	bathroom	sun_auzqhkafidnkrwmo.tif	590916.851890	590917.110483	590917.800536	6.839982e-01	44	none	NaN	NaN
111	7	17	43	bathroom	sun_apjevzvycyhuqghb.tif	590918.570265	590918.828851	590919.518972	6.923397e-01	33	37	590920.408403	1
111	7	18	23	bathroom	sun_aghyqhbptboemmoq.tif	590921.181180	590921.439794	590922.129800	7.590712e-01	13	none	NaN	NaN
111	7	19	57	bathroom	sun_axldvoqbuvuggfmq.tif	590922.899550	590923.158141	590923.848264	7.507298e-01	47	none	NaN	NaN
111	7	20	13	bathroom	sun_aavhrsfjbserjtht.tif	590924.617919	590924.876512	590925.566611	8.174613e-01	3	none	NaN	NaN
111	7	21	28	bathroom	sun_ahijqszoswveeyji.tif	590926.336291	590926.594898	590927.284943	7.340469e-01	18	39	590928.632394	1
111	7	22	51	bathroom	sun_atstyziqcmkahyxk.tif	590929.405997	590929.664586	590930.354669	7.257055e-01	41	none	NaN	NaN
111	7	23	55	bathroom	sun_avhrdrntsqrjzccq.tif	590931.124366	590931.382954	590932.072987	7.090226e-01	45	none	NaN	NaN
111	7	24	40	bathroom	sun_aofnryafpsjimzsb.tif	590932.842732	590933.101326	590933.791529	6.923397e-01	30	none	NaN	NaN
111	7	25	44	bathroom	sun_apkruvsevgegsdwp.tif	590934.561105	590934.819697	590935.509756	8.091199e-01	34	none	NaN	NaN
111	7	26	42	bathroom	sun_apeeialkgkuxddgh.tif	590936.279475	590936.538064	590937.228099	8.174613e-01	32	none	NaN	NaN
111	7	27	20	bathroom	sun_afcoljnjfoxjtgja.tif	590937.997840	590938.256425	590938.946493	7.173640e-01	10	none	NaN	NaN
111	7	28	17	bathroom	sun_acegryoqftbzowsg.tif	590939.716212	590939.974802	590940.664904	8.258028e-01	7	none	NaN	NaN
111	7	29	37	bathroom	sun_amzlamotzwfkwjco.tif	590941.434579	590941.693170	590942.383227	6.923397e-01	27	none	NaN	NaN
111	7	30	16	bathroom	sun_acduarbnmmoglmiv.tif	590943.152949	590943.411540	590944.101740	6.839982e-01	6	none	NaN	NaN
111	7	31	34	bathroom	sun_alkosphxlxwjwgjd.tif	590944.871319	590945.129910	590945.820024	8.341442e-01	24	none	NaN	NaN
111	7	32	49	bathroom	sun_asfwthctfqerjvxr.tif	590946.589690	590946.848277	590947.538446	7.674127e-01	39	none	NaN	NaN
111	7	33	31	bathroom	sun_akiytfaagpdsphgz.tif	590948.308055	590948.566646	590949.256890	7.924370e-01	21	none	NaN	NaN
111	7	34	53	bathroom	sun_ausgutylgojavyoq.tif	590950.026425	590950.285017	590950.975168	7.090226e-01	43	39	590953.008716	1
111	7	35	39	bathroom	sun_anryaplzeujmzfkd.tif	590953.780161	590954.038734	590954.728821	8.424856e-01	29	none	NaN	NaN
111	7	36	21	bathroom	sun_aggnnqpdorgxpvce.tif	590955.498513	590955.757102	590956.447266	7.924370e-01	11	39	590958.616391	1
111	7	37	56	bathroom	sun_awnqiikzaispgmwo.tif	590959.394036	590959.652625	590960.342769	7.340469e-01	46	none	NaN	NaN
111	7	38	14	bathroom	sun_abapwbhyhkfixyex.tif	590961.112408	590961.370997	590962.061157	8.174613e-01	4	none	NaN	NaN
111	7	39	60	bathroom	sun_azqyogdvyhahyram.tif	590962.830775	590963.089365	590963.779558	7.590712e-01	50	none	NaN	NaN
111	7	40	38	bathroom	sun_anhioqovhscjqqwb.tif	590964.549149	590964.807735	590965.497772	8.258028e-01	28	none	NaN	NaN
111	7	41	47	bathroom	sun_apynckhmoftszqoq.tif	590966.267515	590966.526103	590967.216233	6.506325e-01	37	none	NaN	NaN
111	7	42	12	bathroom	sun_aapitsgbtktqubfy.tif	590967.985883	590968.244474	590968.934527	8.007784e-01	2	none	NaN	NaN
111	7	43	22	bathroom	sun_agguqiubmwhqqunb.tif	590969.704254	590969.962841	590970.653059	7.423883e-01	12	37	590971.648354	1
111	7	44	46	bathroom	sun_apmqjbnwghzuhhzh.tif	590972.423611	590972.682196	590973.372278	8.341442e-01	36	none	NaN	NaN
111	7	45	58	bathroom	sun_axxbkopsgyouuebh.tif	590974.141980	590974.400570	590975.090671	8.258028e-01	48	none	NaN	NaN
111	7	46	35	bathroom	sun_alotolagknyrgtsk.tif	590975.860351	590976.118942	590976.809095	8.424856e-01	25	none	NaN	NaN
111	7	47	26	bathroom	sun_ahaulkltgpkeeemi.tif	590977.578719	590977.837313	590978.527490	8.091199e-01	16	none	NaN	NaN
111	7	48	29	bathroom	sun_ahqjwnzgolcaoidx.tif	590979.297087	590979.555679	590980.245718	6.673154e-01	19	none	NaN	NaN
111	7	49	32	bathroom	sun_aleqenyvunhactkl.tif	590981.015459	590981.274048	590981.964263	7.590712e-01	22	none	NaN	NaN
111	7	50	15	bathroom	sun_abjtwfukuwddzted.tif	590982.733826	590982.992415	590983.682648	6.589739e-01	5	none	NaN	NaN
111	7	51	16	bathroom	sun_acduarbnmmoglmiv.tif	590984.452200	590984.710788	590985.400953	7.173640e-01	6	none	NaN	NaN
111	7	52	53	bathroom	sun_ausgutylgojavyoq.tif	590986.170568	590986.429154	590987.119231	8.341442e-01	43	none	NaN	NaN
111	7	53	23	bathroom	sun_aghyqhbptboemmoq.tif	590987.888933	590988.147527	590988.837603	7.757541e-01	13	none	NaN	NaN
111	7	54	17	bathroom	sun_acegryoqftbzowsg.tif	590989.607303	590989.865897	590990.556020	6.673154e-01	7	none	NaN	NaN
111	7	55	32	bathroom	sun_aleqenyvunhactkl.tif	590991.325670	590991.584260	590992.274466	8.424856e-01	22	37	590993.344500	1
111	7	56	37	bathroom	sun_amzlamotzwfkwjco.tif	590994.120107	590994.378696	590995.068763	8.091199e-01	27	none	NaN	NaN
111	7	57	59	bathroom	sun_axyrejkiiaqiurjk.tif	590995.838479	590996.097063	590996.787249	7.507298e-01	49	37	590997.664549	0
111	7	58	41	bathroom	sun_aoybiabnpadelefl.tif	590998.441047	590998.699645	590999.389669	7.006811e-01	31	none	NaN	NaN
111	7	59	26	bathroom	sun_ahaulkltgpkeeemi.tif	591000.159427	591000.418015	591001.108148	8.091199e-01	16	none	NaN	NaN
111	7	60	55	bathroom	sun_avhrdrntsqrjzccq.tif	591001.877797	591002.136383	591002.826467	6.756568e-01	45	none	NaN	NaN
111	7	61	40	bathroom	sun_aofnryafpsjimzsb.tif	591003.596162	591003.854754	591004.544765	7.340469e-01	30	none	NaN	NaN
111	7	62	33	bathroom	sun_aljolscmmzydegqp.tif	591005.314531	591005.573121	591006.263322	6.923397e-01	23	none	NaN	NaN
111	7	63	24	bathroom	sun_agrwbmhcpmfuwmsg.tif	591007.032898	591007.291490	591007.981717	7.590712e-01	14	none	NaN	NaN
111	7	64	39	bathroom	sun_anryaplzeujmzfkd.tif	591008.751273	591009.009863	591009.699927	8.508271e-01	29	none	NaN	NaN
111	7	65	38	bathroom	sun_anhioqovhscjqqwb.tif	591010.469637	591010.728229	591011.418265	6.589739e-01	28	none	NaN	NaN
111	7	66	15	bathroom	sun_abjtwfukuwddzted.tif	591012.188006	591012.446603	591013.136694	6.756568e-01	5	none	NaN	NaN
111	7	67	42	bathroom	sun_apeeialkgkuxddgh.tif	591013.906376	591014.164964	591014.855084	7.840955e-01	32	none	NaN	NaN
111	7	68	11	bathroom	labelme_sfxiulhjbhlyiyt.tif	591015.624743	591015.883335	591016.573443	8.508271e-01	1	none	NaN	NaN
111	7	69	12	bathroom	sun_aapitsgbtktqubfy.tif	591017.343118	591017.601698	591018.291891	6.839982e-01	2	none	NaN	NaN
111	7	70	43	bathroom	sun_apjevzvycyhuqghb.tif	591019.061487	591019.320076	591020.010241	7.257055e-01	33	none	NaN	NaN
111	7	71	47	bathroom	sun_apynckhmoftszqoq.tif	591020.779851	591021.038443	591021.728582	8.007784e-01	37	37	591027.968215	1
111	7	72	34	bathroom	sun_alkosphxlxwjwgjd.tif	591028.746071	591029.004664	591029.694775	7.590712e-01	24	none	NaN	NaN
111	7	73	30	bathroom	sun_ajlawzvmubibwbpy.tif	591030.464446	591030.723037	591031.413045	7.173640e-01	20	none	NaN	NaN
111	7	74	56	bathroom	sun_awnqiikzaispgmwo.tif	591032.182818	591032.441403	591033.131466	6.589739e-01	46	none	NaN	NaN
111	7	75	36	bathroom	sun_ambriybtogmepttm.tif	591033.901182	591034.159770	591034.849986	8.174613e-01	26	none	NaN	NaN
111	7	76	46	bathroom	sun_apmqjbnwghzuhhzh.tif	591035.619555	591035.878139	591036.568263	6.673154e-01	36	none	NaN	NaN
111	7	77	14	bathroom	sun_abapwbhyhkfixyex.tif	591037.337922	591037.596511	591038.286563	7.757541e-01	4	none	NaN	NaN
111	7	78	19	bathroom	sun_aclfzgynxzxlbepz.tif	591039.056293	591039.314882	591040.005003	6.923397e-01	9	none	NaN	NaN
111	7	79	25	bathroom	sun_agyqfjcfkdcydepw.tif	591040.774657	591041.033246	591041.723306	7.006811e-01	15	none	NaN	NaN
111	7	80	13	bathroom	sun_aavhrsfjbserjtht.tif	591042.493028	591042.751622	591043.441746	7.257055e-01	3	none	NaN	NaN
111	7	81	60	bathroom	sun_azqyogdvyhahyram.tif	591044.211400	591044.469986	591045.160204	7.423883e-01	50	none	NaN	NaN
111	7	82	50	bathroom	sun_aspsyogrekjtfozg.tif	591045.929766	591046.188358	591046.878371	6.506325e-01	40	37	591047.760382	0
111	7	83	22	bathroom	sun_agguqiubmwhqqunb.tif	591048.532345	591048.790936	591049.481031	6.589739e-01	12	none	NaN	NaN
111	7	84	20	bathroom	sun_afcoljnjfoxjtgja.tif	591050.250715	591050.509308	591051.199439	8.258028e-01	10	none	NaN	NaN
111	7	85	18	bathroom	sun_acgyywnybuveqsro.tif	591051.969082	591052.227673	591052.917875	6.756568e-01	8	none	NaN	NaN
111	7	86	58	bathroom	sun_axxbkopsgyouuebh.tif	591053.687449	591053.946038	591054.636137	7.757541e-01	48	none	NaN	NaN
111	7	87	35	bathroom	sun_alotolagknyrgtsk.tif	591055.405823	591055.664411	591056.354605	7.257055e-01	25	none	NaN	NaN
111	7	88	44	bathroom	sun_apkruvsevgegsdwp.tif	591057.124193	591057.382782	591058.072982	7.006811e-01	34	none	NaN	NaN
111	7	89	48	bathroom	sun_aqrpegblszgcoujh.tif	591058.842561	591059.101148	591059.791314	7.840955e-01	38	none	NaN	NaN
111	7	90	45	bathroom	sun_apkxzenqapsujocq.tif	591060.560927	591060.819522	591061.509539	7.840955e-01	35	none	NaN	NaN
111	7	91	57	bathroom	sun_axldvoqbuvuggfmq.tif	591062.279299	591062.537893	591063.227953	7.090226e-01	47	39	591065.712545	1
111	7	92	51	bathroom	sun_atstyziqcmkahyxk.tif	591066.483461	591066.742053	591067.432120	7.173640e-01	41	none	NaN	NaN
111	7	93	31	bathroom	sun_akiytfaagpdsphgz.tif	591068.201831	591068.460422	591069.150598	7.924370e-01	21	none	NaN	NaN
111	7	94	29	bathroom	sun_ahqjwnzgolcaoidx.tif	591069.920201	591070.178791	591070.868869	8.258028e-01	19	none	NaN	NaN
111	7	95	54	bathroom	sun_auzqhkafidnkrwmo.tif	591071.638570	591071.897160	591072.587365	8.424856e-01	44	37	591073.456471	1
111	7	96	49	bathroom	sun_asfwthctfqerjvxr.tif	591074.232803	591074.491392	591075.181532	7.757541e-01	39	none	NaN	NaN
111	7	97	52	bathroom	sun_aunuadmjocsddsrl.tif	591075.951177	591076.209770	591076.899784	7.674127e-01	42	none	NaN	NaN
111	7	98	28	bathroom	sun_ahijqszoswveeyji.tif	591077.669547	591077.928133	591078.618274	6.839982e-01	18	none	NaN	NaN
111	7	99	21	bathroom	sun_aggnnqpdorgxpvce.tif	591079.387912	591079.646505	591080.336720	7.090226e-01	11	37	591081.144383	1
111	7	100	27	bathroom	sun_ahcvzmoyaycdoftf.tif	591081.915419	591082.174011	591082.864233	7.674127e-01	17	none	NaN	NaN
111	8	1	66	kitchen	sun_aapllqyqlykszopd.tif	591098.231580	591098.490174	591099.172000	6.756568e-01	56	none	NaN	NaN
111	8	2	91	kitchen	sun_ahljzhgcdpomplvg.tif	591099.941609	591100.200197	591100.881942	7.590712e-01	81	37	591101.760632	1
111	8	3	104	kitchen	sun_auticobqsbwgoppi.tif	591102.535844	591102.794429	591103.476279	8.508271e-01	94	none	NaN	NaN
111	8	4	109	kitchen	sun_aypmqwcualkenuoe.tif	591104.245874	591104.504464	591105.186216	7.757541e-01	99	none	NaN	NaN
111	8	5	81	kitchen	sun_aehawpgmrlhlvcow.tif	591105.955901	591106.214483	591106.896243	7.090226e-01	71	37	591107.536473	1
111	8	6	101	kitchen	sun_aqeaevwwwjoqhzvl.tif	591108.308230	591108.566823	591109.248534	7.257055e-01	91	none	NaN	NaN
111	8	7	85	kitchen	sun_afuyedyxivkhecmu.tif	591110.018260	591110.276848	591110.958703	8.258028e-01	75	none	NaN	NaN
111	8	8	83	kitchen	sun_aeqdocilnnpuvuhx.tif	591111.728284	591111.986877	591112.668566	6.923397e-01	73	none	NaN	NaN
111	8	9	80	kitchen	sun_aegoxogugdkwpmpj.tif	591113.438311	591113.696903	591114.378686	8.091199e-01	70	none	NaN	NaN
111	8	10	86	kitchen	sun_aggjlwcdjsjcaemh.tif	591115.148337	591115.406926	591116.088688	6.673154e-01	76	37	591116.792539	0
111	8	11	65	kitchen	sun_aamedkxepzlwuxes.tif	591117.567401	591117.825994	591118.507785	7.006811e-01	55	none	NaN	NaN
111	8	12	98	kitchen	sun_akchetnepxlcxhsu.tif	591119.277428	591119.536022	591120.217856	7.006811e-01	88	none	NaN	NaN
111	8	13	77	kitchen	sun_acxkpeoqbwcxfvip.tif	591120.987462	591121.246052	591121.927842	8.007784e-01	67	none	NaN	NaN
111	8	14	96	kitchen	sun_ajcbwwvdlsvjyzje.tif	591122.697487	591122.956075	591123.637793	8.258028e-01	86	none	NaN	NaN
111	8	15	84	kitchen	sun_aexklacwqwezaorf.tif	591124.407513	591124.666102	591125.347773	7.257055e-01	74	37	591126.160486	0
111	8	16	79	kitchen	sun_admlmbcdswaszruo.tif	591126.935016	591127.193603	591127.875325	7.507298e-01	69	none	NaN	NaN
111	8	17	89	kitchen	sun_agzzivivdpnawacl.tif	591128.645045	591128.903633	591129.585336	8.424856e-01	79	37	591130.336499	1
111	8	18	92	kitchen	sun_ahpczsiumwwocjkv.tif	591131.114161	591131.372746	591132.054635	8.424856e-01	82	none	NaN	NaN
111	8	19	93	kitchen	sun_ahspylgoovwmwvgk.tif	591132.824185	591133.082773	591133.764646	7.757541e-01	83	39	591134.616418	1
111	8	20	87	kitchen	sun_agorklincwxrdtga.tif	591135.393397	591135.651984	591136.333723	7.840955e-01	77	37	591140.472373	1
111	8	21	68	kitchen	sun_aaxxjlsuzvqlgylf.tif	591141.249198	591141.507788	591142.189502	6.839982e-01	58	none	NaN	NaN
111	8	22	76	kitchen	sun_acwjdupvyjsugpay.tif	591142.959223	591143.217818	591143.899592	6.589739e-01	66	none	NaN	NaN
111	8	23	67	kitchen	sun_aarfiyshqohlwkmo.tif	591144.669254	591144.927839	591145.609577	6.589739e-01	57	none	NaN	NaN
111	8	24	97	kitchen	sun_ajkqhtgcbgpcwrwn.tif	591146.370938	591146.629522	591147.311433	7.507298e-01	87	none	NaN	NaN
111	8	25	110	kitchen	sun_azmutvzbxypaceni.tif	591148.080966	591148.339557	591149.021305	7.173640e-01	100	none	NaN	NaN
111	8	26	105	kitchen	sun_avszsnwsbuqfgzbn.tif	591149.790995	591150.049582	591150.731273	7.840955e-01	95	none	NaN	NaN
111	8	27	70	kitchen	sun_abdxkyyxwfskuaqb.tif	591151.501025	591151.759614	591152.441302	8.508271e-01	60	none	NaN	NaN
111	8	28	69	kitchen	sun_abdenxonkemggwsq.tif	591153.211049	591153.469633	591154.151352	7.507298e-01	59	none	NaN	NaN
111	8	29	64	kitchen	sun_aadbddgrdsjugojn.tif	591154.921076	591155.179667	591155.861463	8.424856e-01	54	none	NaN	NaN
111	8	30	72	kitchen	sun_abpwyqmlzafvklqo.tif	591156.631103	591156.889691	591157.571569	7.674127e-01	62	none	NaN	NaN
111	8	31	71	kitchen	sun_abftihopvusyfakt.tif	591158.341131	591158.599722	591159.281459	7.590712e-01	61	none	NaN	NaN
111	8	32	108	kitchen	sun_aymvwlarqodbwuoc.tif	591160.051161	591160.309749	591160.991533	8.341442e-01	98	none	NaN	NaN
111	8	33	102	kitchen	sun_auaiucuqpdausiva.tif	591161.761182	591162.019789	591162.701504	7.340469e-01	92	none	NaN	NaN
111	8	34	75	kitchen	sun_acgtpgfybqjmzeyw.tif	591163.471229	591163.729801	591164.411702	7.924370e-01	65	none	NaN	NaN
111	8	35	100	kitchen	sun_amjjdeyrggfqgmom.tif	591165.181239	591165.439830	591166.121546	8.258028e-01	90	none	NaN	NaN
111	8	36	74	kitchen	sun_acfmftudsenhrfhy.tif	591166.891270	591167.149859	591167.831662	7.674127e-01	64	none	NaN	NaN
111	8	37	73	kitchen	sun_abrcnpqqhmjwekyf.tif	591168.601291	591168.859886	591169.541605	8.007784e-01	63	none	NaN	NaN
111	8	38	94	kitchen	sun_ahywdevtimnqcsln.tif	591170.311321	591170.569913	591171.251631	8.174613e-01	84	none	NaN	NaN
111	8	39	106	kitchen	sun_awcpdzzznmweyyhv.tif	591172.021353	591172.279938	591172.961721	6.923397e-01	96	none	NaN	NaN
111	8	40	103	kitchen	sun_aunzlwrbjumxhwdj.tif	591173.731378	591173.989966	591174.671685	7.173640e-01	93	none	NaN	NaN
111	8	41	99	kitchen	sun_akcjzhbbjlbogpdi.tif	591175.441405	591175.699998	591176.381705	7.423883e-01	89	none	NaN	NaN
111	8	42	63	kitchen	labelme_rykdqxenmhulbdn.tif	591177.151434	591177.410020	591178.091772	8.258028e-01	53	none	NaN	NaN
111	8	43	61	kitchen	labelme_brsyyvweiuaazfr.tif	591178.861460	591179.120047	591179.801722	7.507298e-01	51	none	NaN	NaN
111	8	44	88	kitchen	sun_agubuxuukhzyzpdp.tif	591180.571488	591180.830074	591181.511788	7.590712e-01	78	none	NaN	NaN
111	8	45	95	kitchen	sun_aixorpehvfykdynp.tif	591182.281511	591182.540101	591183.221772	7.090226e-01	85	none	NaN	NaN
111	8	46	62	kitchen	labelme_kxvouciolcpqplr.tif	591183.991541	591184.250133	591184.931848	7.840955e-01	52	none	NaN	NaN
111	8	47	78	kitchen	sun_adgqasybjyktddhj.tif	591185.701568	591185.960166	591186.641829	8.424856e-01	68	none	NaN	NaN
111	8	48	82	kitchen	sun_aenotlpyftoioydp.tif	591187.411595	591187.670184	591188.351950	6.756568e-01	72	37	591189.552361	1
111	8	49	90	kitchen	sun_ahdycvpopffkzzsu.tif	591190.322814	591190.581406	591191.263081	7.423883e-01	80	none	NaN	NaN
111	8	50	107	kitchen	sun_axyyrmzcupyhlivc.tif	591192.032840	591192.291434	591192.973128	6.839982e-01	97	none	NaN	NaN
111	8	51	109	kitchen	sun_aypmqwcualkenuoe.tif	591193.742873	591194.001454	591194.683265	7.757541e-01	99	none	NaN	NaN
111	8	52	75	kitchen	sun_acgtpgfybqjmzeyw.tif	591195.452893	591195.711491	591196.393366	7.173640e-01	65	none	NaN	NaN
111	8	53	76	kitchen	sun_acwjdupvyjsugpay.tif	591197.162925	591197.421512	591198.103338	6.756568e-01	66	none	NaN	NaN
111	8	54	66	kitchen	sun_aapllqyqlykszopd.tif	591198.872951	591199.131538	591199.813424	6.506325e-01	56	none	NaN	NaN
111	8	55	107	kitchen	sun_axyyrmzcupyhlivc.tif	591200.582981	591200.841570	591201.523382	7.006811e-01	97	37	591202.600251	1
111	8	56	64	kitchen	sun_aadbddgrdsjugojn.tif	591203.377414	591203.636000	591204.317711	8.258028e-01	54	37	591205.488524	1
111	8	57	101	kitchen	sun_aqeaevwwwjoqhzvl.tif	591206.263605	591206.522193	591207.204004	6.923397e-01	91	none	NaN	NaN
111	8	58	79	kitchen	sun_admlmbcdswaszruo.tif	591207.973634	591208.232225	591208.914100	7.257055e-01	69	none	NaN	NaN
111	8	59	61	kitchen	labelme_brsyyvweiuaazfr.tif	591209.683657	591209.942251	591210.623973	7.590712e-01	51	none	NaN	NaN
111	8	60	92	kitchen	sun_ahpczsiumwwocjkv.tif	591211.393688	591211.652278	591212.333958	7.590712e-01	82	none	NaN	NaN
111	8	61	63	kitchen	labelme_rykdqxenmhulbdn.tif	591213.103713	591213.362304	591214.044100	7.340469e-01	53	none	NaN	NaN
111	8	62	93	kitchen	sun_ahspylgoovwmwvgk.tif	591214.813743	591215.072332	591215.754064	7.257055e-01	83	none	NaN	NaN
111	8	63	106	kitchen	sun_awcpdzzznmweyyhv.tif	591216.523770	591216.782360	591217.464248	6.923397e-01	96	none	NaN	NaN
111	8	64	83	kitchen	sun_aeqdocilnnpuvuhx.tif	591218.233797	591218.492389	591219.174274	6.839982e-01	73	none	NaN	NaN
111	8	65	70	kitchen	sun_abdxkyyxwfskuaqb.tif	591219.943824	591220.202419	591220.884203	7.006811e-01	60	none	NaN	NaN
111	8	66	84	kitchen	sun_aexklacwqwezaorf.tif	591221.653850	591221.912441	591222.594167	7.757541e-01	74	none	NaN	NaN
111	8	67	78	kitchen	sun_adgqasybjyktddhj.tif	591223.363882	591223.622466	591224.304146	7.924370e-01	68	none	NaN	NaN
111	8	68	77	kitchen	sun_acxkpeoqbwcxfvip.tif	591225.073906	591225.332500	591226.014254	7.840955e-01	67	none	NaN	NaN
111	8	69	74	kitchen	sun_acfmftudsenhrfhy.tif	591226.783933	591227.042524	591227.724400	8.091199e-01	64	none	NaN	NaN
111	8	70	94	kitchen	sun_ahywdevtimnqcsln.tif	591228.493961	591228.752551	591229.434236	7.090226e-01	84	39	591231.088594	1
111	8	71	95	kitchen	sun_aixorpehvfykdynp.tif	591231.863965	591232.122549	591232.804242	6.673154e-01	85	39	591234.344225	1
111	8	72	73	kitchen	sun_abrcnpqqhmjwekyf.tif	591235.117190	591235.375779	591236.057497	8.007784e-01	63	37	591237.024633	1
111	8	73	88	kitchen	sun_agubuxuukhzyzpdp.tif	591237.794841	591238.053432	591238.735278	8.174613e-01	78	none	NaN	NaN
111	8	74	98	kitchen	sun_akchetnepxlcxhsu.tif	591239.504869	591239.763460	591240.445217	8.007784e-01	88	none	NaN	NaN
111	8	75	80	kitchen	sun_aegoxogugdkwpmpj.tif	591241.214901	591241.473489	591242.155223	6.673154e-01	70	39	591243.024451	1
111	8	76	65	kitchen	sun_aamedkxepzlwuxes.tif	591243.800790	591244.059386	591244.741199	7.674127e-01	55	none	NaN	NaN
111	8	77	103	kitchen	sun_aunzlwrbjumxhwdj.tif	591245.510818	591245.769413	591246.451215	7.423883e-01	93	none	NaN	NaN
111	8	78	86	kitchen	sun_aggjlwcdjsjcaemh.tif	591247.220852	591247.479437	591248.161323	8.091199e-01	76	none	NaN	NaN
111	8	79	71	kitchen	sun_abftihopvusyfakt.tif	591248.930877	591249.189466	591249.871220	7.423883e-01	61	none	NaN	NaN
111	8	80	81	kitchen	sun_aehawpgmrlhlvcow.tif	591250.640903	591250.899492	591251.581190	8.341442e-01	71	none	NaN	NaN
111	8	81	96	kitchen	sun_ajcbwwvdlsvjyzje.tif	591252.350933	591252.609518	591253.291317	6.589739e-01	86	none	NaN	NaN
111	8	82	102	kitchen	sun_auaiucuqpdausiva.tif	591254.060958	591254.319546	591255.001338	6.923397e-01	92	none	NaN	NaN
111	8	83	62	kitchen	labelme_kxvouciolcpqplr.tif	591255.770988	591256.029577	591256.711385	7.340469e-01	52	none	NaN	NaN
111	8	84	108	kitchen	sun_aymvwlarqodbwuoc.tif	591257.481011	591257.739601	591258.421446	6.589739e-01	98	none	NaN	NaN
111	8	85	72	kitchen	sun_abpwyqmlzafvklqo.tif	591259.191039	591259.449633	591260.131500	8.174613e-01	62	none	NaN	NaN
111	8	86	87	kitchen	sun_agorklincwxrdtga.tif	591260.901068	591261.159658	591261.841449	7.340469e-01	77	none	NaN	NaN
111	8	87	90	kitchen	sun_ahdycvpopffkzzsu.tif	591262.611097	591262.869683	591263.551385	7.924370e-01	80	none	NaN	NaN
111	8	88	82	kitchen	sun_aenotlpyftoioydp.tif	591264.321068	591264.579713	591265.261485	6.839982e-01	72	none	NaN	NaN
111	8	89	100	kitchen	sun_amjjdeyrggfqgmom.tif	591266.031151	591266.289768	591266.971421	7.173640e-01	90	39	591268.120579	1
111	8	90	67	kitchen	sun_aarfiyshqohlwkmo.tif	591268.892317	591269.150908	591269.832603	7.090226e-01	57	none	NaN	NaN
111	8	91	104	kitchen	sun_auticobqsbwgoppi.tif	591270.602345	591270.860936	591271.542725	8.091199e-01	94	none	NaN	NaN
111	8	92	110	kitchen	sun_azmutvzbxypaceni.tif	591272.312370	591272.570961	591273.252683	7.674127e-01	100	none	NaN	NaN
111	8	93	105	kitchen	sun_avszsnwsbuqfgzbn.tif	591274.022404	591274.280987	591274.962845	8.174613e-01	95	none	NaN	NaN
111	8	94	97	kitchen	sun_ajkqhtgcbgpcwrwn.tif	591275.732431	591275.991019	591276.672806	8.341442e-01	87	none	NaN	NaN
111	8	95	85	kitchen	sun_afuyedyxivkhecmu.tif	591277.442456	591277.701044	591278.382841	8.341442e-01	75	none	NaN	NaN
111	8	96	89	kitchen	sun_agzzivivdpnawacl.tif	591279.152480	591279.411072	591280.092777	7.924370e-01	79	none	NaN	NaN
111	8	97	91	kitchen	sun_ahljzhgcdpomplvg.tif	591280.862507	591281.121103	591281.802983	6.673154e-01	81	none	NaN	NaN
111	8	98	99	kitchen	sun_akcjzhbbjlbogpdi.tif	591282.572540	591282.831128	591283.512908	6.506325e-01	89	none	NaN	NaN
111	8	99	68	kitchen	sun_aaxxjlsuzvqlgylf.tif	591284.282564	591284.541153	591285.222877	6.756568e-01	58	none	NaN	NaN
111	8	100	69	kitchen	sun_abdenxonkemggwsq.tif	591285.992592	591286.251183	591286.932871	6.506325e-01	59	none	NaN	NaN
111	9	1	11	bathroom	labelme_sfxiulhjbhlyiyt.tif	591296.928429	591297.187018	591297.835409	7.757541e-01	1	none	NaN	NaN
111	9	2	24	bathroom	sun_agrwbmhcpmfuwmsg.tif	591298.605091	591298.863678	591299.512069	8.508271e-01	14	none	NaN	NaN
111	9	3	60	bathroom	sun_azqyogdvyhahyram.tif	591300.273409	591300.531996	591301.180438	7.006811e-01	50	none	NaN	NaN
111	9	4	19	bathroom	sun_aclfzgynxzxlbepz.tif	591301.950068	591302.208652	591302.857034	7.924370e-01	9	none	NaN	NaN
111	9	5	14	bathroom	sun_abapwbhyhkfixyex.tif	591303.626727	591303.885316	591304.533673	8.174613e-01	4	none	NaN	NaN
111	9	6	15	bathroom	sun_abjtwfukuwddzted.tif	591305.303391	591305.561980	591306.210419	6.923397e-01	5	39	591307.952347	1
111	9	7	21	bathroom	sun_aggnnqpdorgxpvce.tif	591308.723443	591308.982030	591309.630368	7.507298e-01	11	none	NaN	NaN
111	9	8	38	bathroom	sun_anhioqovhscjqqwb.tif	591310.400106	591310.658695	591311.307027	6.506325e-01	28	none	NaN	NaN
111	9	9	44	bathroom	sun_apkruvsevgegsdwp.tif	591312.076767	591312.335359	591312.983681	6.589739e-01	34	none	NaN	NaN
111	9	10	56	bathroom	sun_awnqiikzaispgmwo.tif	591313.753427	591314.012012	591314.660524	6.589739e-01	46	none	NaN	NaN
111	9	11	16	bathroom	sun_acduarbnmmoglmiv.tif	591315.430090	591315.688681	591316.337149	8.258028e-01	6	none	NaN	NaN
111	9	12	45	bathroom	sun_apkxzenqapsujocq.tif	591317.106750	591317.365338	591318.013870	8.007784e-01	35	none	NaN	NaN
111	9	13	18	bathroom	sun_acgyywnybuveqsro.tif	591318.783405	591319.041999	591319.690316	8.424856e-01	8	none	NaN	NaN
111	9	14	20	bathroom	sun_afcoljnjfoxjtgja.tif	591320.460075	591320.718665	591321.366978	7.757541e-01	10	37	591322.128469	1
111	9	15	49	bathroom	sun_asfwthctfqerjvxr.tif	591322.904157	591323.162748	591323.811232	8.091199e-01	39	none	NaN	NaN
111	9	16	31	bathroom	sun_akiytfaagpdsphgz.tif	591324.580819	591324.839399	591325.487756	7.590712e-01	21	none	NaN	NaN
111	9	17	17	bathroom	sun_acegryoqftbzowsg.tif	591326.257482	591326.516071	591327.164434	7.423883e-01	7	none	NaN	NaN
111	9	18	54	bathroom	sun_auzqhkafidnkrwmo.tif	591327.925805	591328.184387	591328.832860	8.508271e-01	44	none	NaN	NaN
111	9	19	50	bathroom	sun_aspsyogrekjtfozg.tif	591329.602462	591329.861055	591330.509518	8.174613e-01	40	none	NaN	NaN
111	9	20	34	bathroom	sun_alkosphxlxwjwgjd.tif	591331.279119	591331.537714	591332.186132	7.340469e-01	24	37	591333.008418	1
111	9	21	53	bathroom	sun_ausgutylgojavyoq.tif	591333.781602	591334.040193	591334.688682	6.839982e-01	43	none	NaN	NaN
111	9	22	13	bathroom	sun_aavhrsfjbserjtht.tif	591335.458260	591335.716849	591336.365320	6.673154e-01	3	none	NaN	NaN
111	9	23	52	bathroom	sun_aunuadmjocsddsrl.tif	591337.134925	591337.393514	591338.041869	6.506325e-01	42	none	NaN	NaN
111	9	24	12	bathroom	sun_aapitsgbtktqubfy.tif	591338.811584	591339.070173	591339.718534	7.590712e-01	2	none	NaN	NaN
111	9	25	39	bathroom	sun_anryaplzeujmzfkd.tif	591340.488247	591340.746837	591341.395184	7.340469e-01	29	none	NaN	NaN
111	9	26	29	bathroom	sun_ahqjwnzgolcaoidx.tif	591342.164908	591342.423498	591343.071916	7.090226e-01	19	none	NaN	NaN
111	9	27	26	bathroom	sun_ahaulkltgpkeeemi.tif	591343.841567	591344.100154	591344.748602	6.673154e-01	16	37	591345.456454	1
111	9	28	51	bathroom	sun_atstyziqcmkahyxk.tif	591346.227266	591346.485854	591347.134243	7.090226e-01	41	none	NaN	NaN
111	9	29	41	bathroom	sun_aoybiabnpadelefl.tif	591347.903926	591348.162516	591348.810865	7.840955e-01	31	none	NaN	NaN
111	9	30	28	bathroom	sun_ahijqszoswveeyji.tif	591349.580585	591349.839178	591350.487543	7.423883e-01	18	none	NaN	NaN
111	9	31	57	bathroom	sun_axldvoqbuvuggfmq.tif	591351.257248	591351.515832	591352.164304	7.924370e-01	47	none	NaN	NaN
111	9	32	32	bathroom	sun_aleqenyvunhactkl.tif	591352.933909	591353.192498	591353.841014	6.923397e-01	22	39	591354.776435	1
111	9	33	25	bathroom	sun_agyqfjcfkdcydepw.tif	591355.553172	591355.811760	591356.460182	8.007784e-01	15	none	NaN	NaN
111	9	34	30	bathroom	sun_ajlawzvmubibwbpy.tif	591357.229834	591357.488423	591358.136759	8.258028e-01	20	none	NaN	NaN
111	9	35	58	bathroom	sun_axxbkopsgyouuebh.tif	591358.906492	591359.165077	591359.813403	7.507298e-01	48	none	NaN	NaN
111	9	36	48	bathroom	sun_aqrpegblszgcoujh.tif	591360.583151	591360.841741	591361.490313	7.674127e-01	38	none	NaN	NaN
111	9	37	36	bathroom	sun_ambriybtogmepttm.tif	591362.259813	591362.518403	591363.166891	8.258028e-01	26	none	NaN	NaN
111	9	38	33	bathroom	sun_aljolscmmzydegqp.tif	591363.936476	591364.195065	591364.843571	7.674127e-01	23	none	NaN	NaN
111	9	39	42	bathroom	sun_apeeialkgkuxddgh.tif	591365.613134	591365.871729	591366.520240	7.840955e-01	32	none	NaN	NaN
111	9	40	55	bathroom	sun_avhrdrntsqrjzccq.tif	591367.289796	591367.548386	591368.196758	6.756568e-01	45	39	591369.392611	0
111	9	41	46	bathroom	sun_apmqjbnwghzuhhzh.tif	591370.167647	591370.426237	591371.074728	6.839982e-01	36	none	NaN	NaN
111	9	42	22	bathroom	sun_agguqiubmwhqqunb.tif	591371.844311	591372.102898	591372.751556	6.589739e-01	12	none	NaN	NaN
111	9	43	27	bathroom	sun_ahcvzmoyaycdoftf.tif	591373.520973	591373.779561	591374.428052	6.756568e-01	17	none	NaN	NaN
111	9	44	47	bathroom	sun_apynckhmoftszqoq.tif	591375.197632	591375.456220	591376.104645	6.839982e-01	37	none	NaN	NaN
111	9	45	59	bathroom	sun_axyrejkiiaqiurjk.tif	591376.874290	591377.132885	591377.781213	7.423883e-01	49	none	NaN	NaN
111	9	46	35	bathroom	sun_alotolagknyrgtsk.tif	591378.550951	591378.809545	591379.457897	6.673154e-01	25	37	591380.192516	1
111	9	47	40	bathroom	sun_aofnryafpsjimzsb.tif	591380.970016	591381.228610	591381.877062	7.090226e-01	30	37	591383.856577	0
111	9	48	23	bathroom	sun_aghyqhbptboemmoq.tif	591384.631980	591384.890564	591385.539001	7.840955e-01	13	none	NaN	NaN
111	9	49	43	bathroom	sun_apjevzvycyhuqghb.tif	591386.308638	591386.567230	591387.215560	6.673154e-01	33	none	NaN	NaN
111	9	50	37	bathroom	sun_amzlamotzwfkwjco.tif	591387.985300	591388.243904	591388.892372	8.091199e-01	27	none	NaN	NaN
