subject	block	trial	texture	category	image	trialOnset	itiOnset	trialEnd	iti	EEGtrigger	responseKey	responseTime	accuracy
106	1	1	13	bathroom	sun_aavhrsfjbserjtht.tif	512636.152503	512636.411093	512637.151332	7.507899e-01	3	none	NaN	NaN
106	1	2	49	bathroom	sun_asfwthctfqerjvxr.tif	512637.920921	512638.179511	512638.919815	8.425531e-01	39	none	NaN	NaN
106	1	3	25	bathroom	sun_agyqfjcfkdcydepw.tif	512639.689343	512639.947933	512640.688167	6.590267e-01	15	39	512641.419269	1
106	1	4	38	bathroom	sun_anhioqovhscjqqwb.tif	512642.191817	512642.450413	512643.190860	7.841583e-01	28	none	NaN	NaN
106	1	5	37	bathroom	sun_amzlamotzwfkwjco.tif	512643.960236	512644.218829	512644.958974	7.174215e-01	27	none	NaN	NaN
106	1	6	16	bathroom	sun_acduarbnmmoglmiv.tif	512645.720317	512645.978911	512646.719220	6.923951e-01	6	none	NaN	NaN
106	1	7	41	bathroom	sun_aoybiabnpadelefl.tif	512647.488739	512647.747329	512648.487615	6.923951e-01	31	39	512649.034947	1
106	1	8	55	bathroom	sun_avhrdrntsqrjzccq.tif	512649.807701	512650.066292	512650.806423	6.923951e-01	45	none	NaN	NaN
106	1	9	60	bathroom	sun_azqyogdvyhahyram.tif	512651.576119	512651.834709	512652.574872	7.424478e-01	50	39	512653.563104	0
106	1	10	29	bathroom	sun_ahqjwnzgolcaoidx.tif	512654.337191	512654.595772	512655.335983	7.341057e-01	19	none	NaN	NaN
106	1	11	15	bathroom	sun_abjtwfukuwddzted.tif	512656.105608	512656.364199	512657.104340	8.342110e-01	5	37	512657.923148	1
106	1	12	39	bathroom	sun_anryaplzeujmzfkd.tif	512658.699843	512658.958436	512659.698724	6.757109e-01	29	none	NaN	NaN
106	1	13	17	bathroom	sun_acegryoqftbzowsg.tif	512660.468265	512660.726854	512661.467175	8.091847e-01	7	none	NaN	NaN
106	1	14	30	bathroom	sun_ajlawzvmubibwbpy.tif	512662.236689	512662.495280	512663.235506	8.175268e-01	20	none	NaN	NaN
106	1	15	23	bathroom	sun_aghyqhbptboemmoq.tif	512664.005102	512664.263695	512665.003849	7.841583e-01	13	none	NaN	NaN
106	1	16	53	bathroom	sun_ausgutylgojavyoq.tif	512665.773527	512666.032118	512666.772351	7.507899e-01	43	none	NaN	NaN
106	1	17	59	bathroom	sun_axyrejkiiaqiurjk.tif	512667.541940	512667.800531	512668.540711	7.424478e-01	49	none	NaN	NaN
106	1	18	58	bathroom	sun_axxbkopsgyouuebh.tif	512669.310362	512669.568952	512670.309158	7.341057e-01	48	none	NaN	NaN
106	1	19	14	bathroom	sun_abapwbhyhkfixyex.tif	512671.078780	512671.337369	512672.077490	7.090794e-01	4	none	NaN	NaN
106	1	20	33	bathroom	sun_aljolscmmzydegqp.tif	512672.847202	512673.105790	512673.845995	6.923951e-01	23	none	NaN	NaN
106	1	21	46	bathroom	sun_apmqjbnwghzuhhzh.tif	512674.615618	512674.874207	512675.614347	7.341057e-01	36	39	512676.363018	1
106	1	22	18	bathroom	sun_acgyywnybuveqsro.tif	512677.134783	512677.393372	512678.133569	6.757109e-01	8	none	NaN	NaN
106	1	23	19	bathroom	sun_aclfzgynxzxlbepz.tif	512678.903200	512679.161789	512679.902007	7.758162e-01	9	none	NaN	NaN
106	1	24	11	bathroom	labelme_sfxiulhjbhlyiyt.tif	512680.671617	512680.930209	512681.670429	6.673688e-01	1	39	512682.419025	1
106	1	25	27	bathroom	sun_ahcvzmoyaycdoftf.tif	512683.190783	512683.449371	512684.189528	8.258689e-01	17	none	NaN	NaN
106	1	26	21	bathroom	sun_aggnnqpdorgxpvce.tif	512684.959202	512685.217789	512685.958061	7.591320e-01	11	none	NaN	NaN
106	1	27	42	bathroom	sun_apeeialkgkuxddgh.tif	512686.727620	512686.986208	512687.726368	7.591320e-01	32	none	NaN	NaN
106	1	28	56	bathroom	sun_awnqiikzaispgmwo.tif	512688.496038	512688.754632	512689.494789	8.175268e-01	46	none	NaN	NaN
106	1	29	44	bathroom	sun_apkruvsevgegsdwp.tif	512690.264456	512690.523050	512691.263185	7.424478e-01	34	none	NaN	NaN
106	1	30	20	bathroom	sun_afcoljnjfoxjtgja.tif	512692.032878	512692.291464	512693.031686	7.174215e-01	10	none	NaN	NaN
106	1	31	28	bathroom	sun_ahijqszoswveeyji.tif	512693.801293	512694.059888	512694.800203	8.425531e-01	18	none	NaN	NaN
106	1	32	26	bathroom	sun_ahaulkltgpkeeemi.tif	512695.569716	512695.828298	512696.568610	7.674741e-01	16	none	NaN	NaN
106	1	33	22	bathroom	sun_agguqiubmwhqqunb.tif	512697.338151	512697.596725	512698.337029	6.923951e-01	12	none	NaN	NaN
106	1	34	47	bathroom	sun_apynckhmoftszqoq.tif	512699.106558	512699.365142	512700.105451	7.591320e-01	37	none	NaN	NaN
106	1	35	45	bathroom	sun_apkxzenqapsujocq.tif	512700.874972	512701.133563	512701.873844	8.175268e-01	35	none	NaN	NaN
106	1	36	34	bathroom	sun_alkosphxlxwjwgjd.tif	512702.643391	512702.901984	512703.642140	8.342110e-01	24	none	NaN	NaN
106	1	37	12	bathroom	sun_aapitsgbtktqubfy.tif	512704.411809	512704.670406	512705.410706	8.091847e-01	2	none	NaN	NaN
106	1	38	52	bathroom	sun_aunuadmjocsddsrl.tif	512706.180227	512706.438818	512707.178995	7.090794e-01	42	none	NaN	NaN
106	1	39	50	bathroom	sun_aspsyogrekjtfozg.tif	512707.948648	512708.207237	512708.947567	7.925005e-01	40	none	NaN	NaN
106	1	40	54	bathroom	sun_auzqhkafidnkrwmo.tif	512709.717064	512709.975656	512710.715780	6.506846e-01	44	none	NaN	NaN
106	1	41	31	bathroom	sun_akiytfaagpdsphgz.tif	512711.485489	512711.744075	512712.484230	6.590267e-01	21	39	512713.339059	1
106	1	42	48	bathroom	sun_aqrpegblszgcoujh.tif	512714.113090	512714.371679	512715.111847	8.091847e-01	38	none	NaN	NaN
106	1	43	35	bathroom	sun_alotolagknyrgtsk.tif	512715.881509	512716.140098	512716.880320	8.008426e-01	25	none	NaN	NaN
106	1	44	24	bathroom	sun_agrwbmhcpmfuwmsg.tif	512717.649929	512717.908514	512718.648843	7.257636e-01	14	none	NaN	NaN
106	1	45	40	bathroom	sun_aofnryafpsjimzsb.tif	512719.418348	512719.676941	512720.417291	7.841583e-01	30	none	NaN	NaN
106	1	46	36	bathroom	sun_ambriybtogmepttm.tif	512721.186766	512721.445359	512722.185488	7.758162e-01	26	none	NaN	NaN
106	1	47	57	bathroom	sun_axldvoqbuvuggfmq.tif	512722.955189	512723.213770	512723.954067	8.258689e-01	47	none	NaN	NaN
106	1	48	43	bathroom	sun_apjevzvycyhuqghb.tif	512724.723621	512724.982195	512725.722427	6.506846e-01	33	none	NaN	NaN
106	1	49	32	bathroom	sun_aleqenyvunhactkl.tif	512726.492021	512726.750613	512727.490911	7.007372e-01	22	none	NaN	NaN
106	1	50	51	bathroom	sun_atstyziqcmkahyxk.tif	512728.260435	512728.519031	512729.259359	8.008426e-01	41	none	NaN	NaN
106	1	51	59	bathroom	sun_axyrejkiiaqiurjk.tif	512730.028864	512730.287452	512731.027777	7.007372e-01	49	none	NaN	NaN
106	1	52	11	bathroom	labelme_sfxiulhjbhlyiyt.tif	512731.797283	512732.055868	512732.796212	7.341057e-01	1	none	NaN	NaN
106	1	53	25	bathroom	sun_agyqfjcfkdcydepw.tif	512733.565701	512733.824292	512734.564636	7.507899e-01	15	none	NaN	NaN
106	1	54	16	bathroom	sun_acduarbnmmoglmiv.tif	512735.334120	512735.592709	512736.333042	7.174215e-01	6	none	NaN	NaN
106	1	55	21	bathroom	sun_aggnnqpdorgxpvce.tif	512737.102537	512737.361127	512738.101379	7.591320e-01	11	none	NaN	NaN
106	1	56	51	bathroom	sun_atstyziqcmkahyxk.tif	512738.870955	512739.129550	512739.869759	7.925005e-01	41	none	NaN	NaN
106	1	57	32	bathroom	sun_aleqenyvunhactkl.tif	512740.639378	512740.897962	512741.638107	7.925005e-01	22	none	NaN	NaN
106	1	58	33	bathroom	sun_aljolscmmzydegqp.tif	512742.407790	512742.666381	512743.406534	7.674741e-01	23	none	NaN	NaN
106	1	59	18	bathroom	sun_acgyywnybuveqsro.tif	512744.176212	512744.434800	512745.174929	7.090794e-01	8	none	NaN	NaN
106	1	60	36	bathroom	sun_ambriybtogmepttm.tif	512745.944632	512746.203220	512746.943365	7.841583e-01	26	none	NaN	NaN
106	1	61	13	bathroom	sun_aavhrsfjbserjtht.tif	512747.713052	512747.971642	512748.711943	8.508952e-01	3	none	NaN	NaN
106	1	62	56	bathroom	sun_awnqiikzaispgmwo.tif	512749.481472	512749.740063	512750.480334	7.758162e-01	46	39	512751.283010	1
106	1	63	14	bathroom	sun_abapwbhyhkfixyex.tif	512752.059025	512752.317615	512753.057946	6.590267e-01	4	none	NaN	NaN
106	1	64	45	bathroom	sun_apkxzenqapsujocq.tif	512753.827438	512754.086032	512754.826287	8.091847e-01	35	none	NaN	NaN
106	1	65	38	bathroom	sun_anhioqovhscjqqwb.tif	512755.595866	512755.854450	512756.594740	8.258689e-01	28	39	512757.643303	0
106	1	66	44	bathroom	sun_apkruvsevgegsdwp.tif	512758.415319	512758.673910	512759.414117	8.008426e-01	34	39	512760.491399	0
106	1	67	35	bathroom	sun_alotolagknyrgtsk.tif	512761.268144	512761.526738	512762.266936	6.673688e-01	25	none	NaN	NaN
106	1	68	55	bathroom	sun_avhrdrntsqrjzccq.tif	512763.036566	512763.295157	512764.035346	6.757109e-01	45	39	512764.915244	1
106	1	69	22	bathroom	sun_agguqiubmwhqqunb.tif	512765.689197	512765.947784	512766.687947	6.840530e-01	12	none	NaN	NaN
106	1	70	24	bathroom	sun_agrwbmhcpmfuwmsg.tif	512767.457615	512767.716202	512768.456489	7.424478e-01	14	none	NaN	NaN
106	1	71	47	bathroom	sun_apynckhmoftszqoq.tif	512769.226035	512769.484621	512770.224754	8.342110e-01	37	none	NaN	NaN
106	1	72	53	bathroom	sun_ausgutylgojavyoq.tif	512770.994449	512771.253040	512771.993204	7.591320e-01	43	none	NaN	NaN
106	1	73	15	bathroom	sun_abjtwfukuwddzted.tif	512772.762870	512773.021466	512773.761791	8.008426e-01	5	none	NaN	NaN
106	1	74	28	bathroom	sun_ahijqszoswveeyji.tif	512774.531293	512774.789881	512775.530075	7.257636e-01	18	none	NaN	NaN
106	1	75	26	bathroom	sun_ahaulkltgpkeeemi.tif	512776.299705	512776.558298	512777.298620	8.175268e-01	16	37	512778.011269	1
106	1	76	58	bathroom	sun_axxbkopsgyouuebh.tif	512778.785504	512779.044093	512779.784252	6.840530e-01	48	none	NaN	NaN
106	1	77	17	bathroom	sun_acegryoqftbzowsg.tif	512780.553924	512780.812509	512781.552763	6.840530e-01	7	37	512782.307199	1
106	1	78	54	bathroom	sun_auzqhkafidnkrwmo.tif	512783.081423	512783.340015	512784.080316	8.342110e-01	44	none	NaN	NaN
106	1	79	30	bathroom	sun_ajlawzvmubibwbpy.tif	512784.849850	512785.108434	512785.848696	7.174215e-01	20	none	NaN	NaN
106	1	80	19	bathroom	sun_aclfzgynxzxlbepz.tif	512786.618265	512786.876855	512787.617132	8.258689e-01	9	none	NaN	NaN
106	1	81	60	bathroom	sun_azqyogdvyhahyram.tif	512788.386686	512788.645264	512789.385580	7.257636e-01	50	none	NaN	NaN
106	1	82	50	bathroom	sun_aspsyogrekjtfozg.tif	512790.155107	512790.413691	512791.153822	7.758162e-01	40	none	NaN	NaN
106	1	83	42	bathroom	sun_apeeialkgkuxddgh.tif	512791.923521	512792.182116	512792.922438	7.007372e-01	32	none	NaN	NaN
106	1	84	49	bathroom	sun_asfwthctfqerjvxr.tif	512793.691942	512793.950531	512794.690733	7.674741e-01	39	none	NaN	NaN
106	1	85	27	bathroom	sun_ahcvzmoyaycdoftf.tif	512795.460359	512795.718964	512796.459171	7.007372e-01	17	none	NaN	NaN
106	1	86	12	bathroom	sun_aapitsgbtktqubfy.tif	512797.228778	512797.487369	512798.227576	7.257636e-01	2	none	NaN	NaN
106	1	87	23	bathroom	sun_aghyqhbptboemmoq.tif	512798.997199	512799.255784	512799.995907	6.506846e-01	13	39	512800.587294	1
106	1	88	20	bathroom	sun_afcoljnjfoxjtgja.tif	512801.357873	512801.616457	512802.356673	8.425531e-01	10	none	NaN	NaN
106	1	89	40	bathroom	sun_aofnryafpsjimzsb.tif	512803.126291	512803.384877	512804.125217	6.590267e-01	30	none	NaN	NaN
106	1	90	39	bathroom	sun_anryaplzeujmzfkd.tif	512804.894706	512805.153294	512805.893568	6.840530e-01	29	none	NaN	NaN
106	1	91	43	bathroom	sun_apjevzvycyhuqghb.tif	512806.663126	512806.921713	512807.662004	8.258689e-01	33	none	NaN	NaN
106	1	92	34	bathroom	sun_alkosphxlxwjwgjd.tif	512808.431548	512808.690132	512809.430387	6.673688e-01	24	none	NaN	NaN
106	1	93	41	bathroom	sun_aoybiabnpadelefl.tif	512810.199960	512810.458550	512811.198793	8.425531e-01	31	none	NaN	NaN
106	1	94	46	bathroom	sun_apmqjbnwghzuhhzh.tif	512811.968382	512812.226972	512812.967178	6.757109e-01	36	none	NaN	NaN
106	1	95	57	bathroom	sun_axldvoqbuvuggfmq.tif	512813.736800	512813.995393	512814.735710	8.508952e-01	47	none	NaN	NaN
106	1	96	31	bathroom	sun_akiytfaagpdsphgz.tif	512815.505221	512815.763814	512816.504107	7.507899e-01	21	37	512817.131002	1
106	1	97	37	bathroom	sun_amzlamotzwfkwjco.tif	512817.907599	512818.166183	512818.906427	7.090794e-01	27	none	NaN	NaN
106	1	98	29	bathroom	sun_ahqjwnzgolcaoidx.tif	512819.676018	512819.934610	512820.674939	7.674741e-01	19	none	NaN	NaN
106	1	99	52	bathroom	sun_aunuadmjocsddsrl.tif	512821.444439	512821.703026	512822.443362	7.925005e-01	42	none	NaN	NaN
106	1	100	48	bathroom	sun_aqrpegblszgcoujh.tif	512823.212857	512823.471445	512824.211650	6.673688e-01	38	none	NaN	NaN
106	2	1	62	kitchen	labelme_kxvouciolcpqplr.tif	512831.446014	512831.704606	512832.394803	8.258689e-01	52	none	NaN	NaN
106	2	2	82	kitchen	sun_aenotlpyftoioydp.tif	512833.164384	512833.422974	512834.113195	7.007372e-01	72	none	NaN	NaN
106	2	3	80	kitchen	sun_aegoxogugdkwpmpj.tif	512834.882754	512835.141339	512835.831425	8.258689e-01	70	none	NaN	NaN
106	2	4	84	kitchen	sun_aexklacwqwezaorf.tif	512836.601125	512836.859714	512837.549955	7.507899e-01	74	none	NaN	NaN
106	2	5	88	kitchen	sun_agubuxuukhzyzpdp.tif	512838.319489	512838.578081	512839.268333	7.424478e-01	78	none	NaN	NaN
106	2	6	85	kitchen	sun_afuyedyxivkhecmu.tif	512840.037859	512840.296451	512840.986520	7.925005e-01	75	37	512841.523193	1
106	2	7	73	kitchen	sun_abrcnpqqhmjwekyf.tif	512842.298432	512842.557021	512843.247253	7.591320e-01	63	none	NaN	NaN
106	2	8	99	kitchen	sun_akcjzhbbjlbogpdi.tif	512844.016800	512844.275396	512844.965650	7.257636e-01	89	none	NaN	NaN
106	2	9	75	kitchen	sun_acgtpgfybqjmzeyw.tif	512845.735171	512845.993761	512846.683862	7.591320e-01	65	none	NaN	NaN
106	2	10	92	kitchen	sun_ahpczsiumwwocjkv.tif	512847.453538	512847.712132	512848.402360	7.591320e-01	82	none	NaN	NaN
106	2	11	67	kitchen	sun_aarfiyshqohlwkmo.tif	512849.171905	512849.430497	512850.120776	7.507899e-01	57	37	512850.642997	1
106	2	12	89	kitchen	sun_agzzivivdpnawacl.tif	512851.415800	512851.674392	512852.364530	7.090794e-01	79	none	NaN	NaN
106	2	13	87	kitchen	sun_agorklincwxrdtga.tif	512853.134168	512853.392754	512854.082907	8.342110e-01	77	none	NaN	NaN
106	2	14	70	kitchen	sun_abdxkyyxwfskuaqb.tif	512854.852542	512855.111130	512855.801325	7.007372e-01	60	none	NaN	NaN
106	2	15	69	kitchen	sun_abdenxonkemggwsq.tif	512856.570906	512856.829498	512857.519629	6.506846e-01	59	none	NaN	NaN
106	2	16	66	kitchen	sun_aapllqyqlykszopd.tif	512858.289276	512858.547866	512859.238133	7.341057e-01	56	39	512859.795167	1
106	2	17	104	kitchen	sun_auticobqsbwgoppi.tif	512860.566530	512860.825115	512861.515292	8.008426e-01	94	none	NaN	NaN
106	2	18	90	kitchen	sun_ahdycvpopffkzzsu.tif	512862.284903	512862.543486	512863.233637	6.840530e-01	80	none	NaN	NaN
106	2	19	96	kitchen	sun_ajcbwwvdlsvjyzje.tif	512864.003268	512864.261864	512864.951994	6.923951e-01	86	none	NaN	NaN
106	2	20	65	kitchen	sun_aamedkxepzlwuxes.tif	512865.721644	512865.980233	512866.670515	7.090794e-01	55	none	NaN	NaN
106	2	21	106	kitchen	sun_awcpdzzznmweyyhv.tif	512867.440009	512867.698602	512868.388786	7.674741e-01	96	none	NaN	NaN
106	2	22	83	kitchen	sun_aeqdocilnnpuvuhx.tif	512869.158381	512869.416971	512870.107177	8.425531e-01	73	none	NaN	NaN
106	2	23	64	kitchen	sun_aadbddgrdsjugojn.tif	512870.876748	512871.135336	512871.825517	7.841583e-01	54	none	NaN	NaN
106	2	24	61	kitchen	labelme_brsyyvweiuaazfr.tif	512872.595120	512872.853708	512873.543962	7.174215e-01	51	none	NaN	NaN
106	2	25	107	kitchen	sun_axyyrmzcupyhlivc.tif	512874.313481	512874.572075	512875.262177	7.341057e-01	97	none	NaN	NaN
106	2	26	91	kitchen	sun_ahljzhgcdpomplvg.tif	512876.031857	512876.290465	512876.980718	6.590267e-01	81	none	NaN	NaN
106	2	27	94	kitchen	sun_ahywdevtimnqcsln.tif	512877.750224	512878.008814	512878.699100	7.507899e-01	84	none	NaN	NaN
106	2	28	78	kitchen	sun_adgqasybjyktddhj.tif	512879.468591	512879.727184	512880.417352	7.257636e-01	68	none	NaN	NaN
106	2	29	102	kitchen	sun_auaiucuqpdausiva.tif	512881.186965	512881.445551	512882.135666	6.923951e-01	92	none	NaN	NaN
106	2	30	95	kitchen	sun_aixorpehvfykdynp.tif	512882.905331	512883.163921	512883.854082	6.673688e-01	85	none	NaN	NaN
106	2	31	81	kitchen	sun_aehawpgmrlhlvcow.tif	512884.623700	512884.882290	512885.572535	7.007372e-01	71	39	512886.179062	1
106	2	32	74	kitchen	sun_acfmftudsenhrfhy.tif	512886.951009	512887.209596	512887.899683	8.342110e-01	64	37	512888.507114	1
106	2	33	72	kitchen	sun_abpwyqmlzafvklqo.tif	512889.278311	512889.536903	512890.227096	7.090794e-01	62	none	NaN	NaN
106	2	34	109	kitchen	sun_aypmqwcualkenuoe.tif	512890.996685	512891.255271	512891.945495	7.174215e-01	99	37	512892.691350	1
106	2	35	63	kitchen	labelme_rykdqxenmhulbdn.tif	512893.465797	512893.724387	512894.414485	7.758162e-01	53	none	NaN	NaN
106	2	36	105	kitchen	sun_avszsnwsbuqfgzbn.tif	512895.184164	512895.442747	512896.132953	7.090794e-01	95	none	NaN	NaN
106	2	37	98	kitchen	sun_akchetnepxlcxhsu.tif	512896.902533	512897.161123	512897.851212	8.091847e-01	88	none	NaN	NaN
106	2	38	86	kitchen	sun_aggjlwcdjsjcaemh.tif	512898.612562	512898.871147	512899.561225	6.673688e-01	76	none	NaN	NaN
106	2	39	68	kitchen	sun_aaxxjlsuzvqlgylf.tif	512900.330930	512900.589517	512901.279789	7.591320e-01	58	none	NaN	NaN
106	2	40	71	kitchen	sun_abftihopvusyfakt.tif	512902.049300	512902.307883	512902.998096	8.425531e-01	61	none	NaN	NaN
106	2	41	93	kitchen	sun_ahspylgoovwmwvgk.tif	512903.767670	512904.026258	512904.716375	7.674741e-01	83	39	512905.451074	1
106	2	42	100	kitchen	sun_amjjdeyrggfqgmom.tif	512906.228434	512906.487029	512907.177226	8.175268e-01	90	none	NaN	NaN
106	2	43	108	kitchen	sun_aymvwlarqodbwuoc.tif	512907.946807	512908.205399	512908.895664	6.757109e-01	98	none	NaN	NaN
106	2	44	76	kitchen	sun_acwjdupvyjsugpay.tif	512909.665177	512909.923766	512910.613946	7.841583e-01	66	none	NaN	NaN
106	2	45	97	kitchen	sun_ajkqhtgcbgpcwrwn.tif	512911.383545	512911.642134	512912.332238	7.758162e-01	87	none	NaN	NaN
106	2	46	79	kitchen	sun_admlmbcdswaszruo.tif	512913.101916	512913.360507	512914.050616	8.258689e-01	69	none	NaN	NaN
106	2	47	77	kitchen	sun_acxkpeoqbwcxfvip.tif	512914.820285	512915.078874	512915.768992	7.925005e-01	67	none	NaN	NaN
106	2	48	103	kitchen	sun_aunzlwrbjumxhwdj.tif	512916.538654	512916.797245	512917.487462	7.841583e-01	93	none	NaN	NaN
106	2	49	110	kitchen	sun_azmutvzbxypaceni.tif	512918.257021	512918.515614	512919.205859	8.008426e-01	100	none	NaN	NaN
106	2	50	101	kitchen	sun_aqeaevwwwjoqhzvl.tif	512919.975390	512920.233985	512920.924228	7.174215e-01	91	none	NaN	NaN
106	2	51	88	kitchen	sun_agubuxuukhzyzpdp.tif	512921.693765	512921.952352	512922.642472	8.175268e-01	78	none	NaN	NaN
106	2	52	92	kitchen	sun_ahpczsiumwwocjkv.tif	512923.412130	512923.670714	512924.360869	6.923951e-01	82	39	512924.939063	1
106	2	53	66	kitchen	sun_aapllqyqlykszopd.tif	512925.714410	512925.972998	512926.663165	8.091847e-01	56	none	NaN	NaN
106	2	54	102	kitchen	sun_auaiucuqpdausiva.tif	512927.432781	512927.691374	512928.381515	7.925005e-01	92	37	512928.987141	1
106	2	55	78	kitchen	sun_adgqasybjyktddhj.tif	512929.760084	512930.018673	512930.708902	7.925005e-01	68	none	NaN	NaN
106	2	56	68	kitchen	sun_aaxxjlsuzvqlgylf.tif	512931.478453	512931.737044	512932.427215	6.757109e-01	58	none	NaN	NaN
106	2	57	62	kitchen	labelme_kxvouciolcpqplr.tif	512933.196822	512933.455416	512934.145642	6.590267e-01	52	none	NaN	NaN
106	2	58	100	kitchen	sun_amjjdeyrggfqgmom.tif	512934.915196	512935.173780	512935.864014	6.923951e-01	90	none	NaN	NaN
106	2	59	74	kitchen	sun_acfmftudsenhrfhy.tif	512936.633565	512936.892150	512937.582373	7.174215e-01	64	none	NaN	NaN
106	2	60	109	kitchen	sun_aypmqwcualkenuoe.tif	512938.351934	512938.610525	512939.300731	8.425531e-01	99	none	NaN	NaN
106	2	61	105	kitchen	sun_avszsnwsbuqfgzbn.tif	512940.070299	512940.328888	512941.019105	7.591320e-01	95	none	NaN	NaN
106	2	62	67	kitchen	sun_aarfiyshqohlwkmo.tif	512941.788670	512942.047256	512942.737494	6.840530e-01	57	none	NaN	NaN
106	2	63	83	kitchen	sun_aeqdocilnnpuvuhx.tif	512943.507037	512943.765628	512944.455818	6.673688e-01	73	none	NaN	NaN
106	2	64	90	kitchen	sun_ahdycvpopffkzzsu.tif	512945.225407	512945.484003	512946.174097	6.757109e-01	80	none	NaN	NaN
106	2	65	75	kitchen	sun_acgtpgfybqjmzeyw.tif	512946.943778	512947.202364	512947.892642	7.758162e-01	65	none	NaN	NaN
106	2	66	101	kitchen	sun_aqeaevwwwjoqhzvl.tif	512948.662144	512948.920733	512949.610911	7.758162e-01	91	none	NaN	NaN
106	2	67	82	kitchen	sun_aenotlpyftoioydp.tif	512950.380519	512950.639105	512951.329274	6.840530e-01	72	39	512951.963208	1
106	2	68	97	kitchen	sun_ajkqhtgcbgpcwrwn.tif	512952.741186	512952.999776	512953.690042	7.007372e-01	87	none	NaN	NaN
106	2	69	77	kitchen	sun_acxkpeoqbwcxfvip.tif	512954.459559	512954.718147	512955.408247	7.341057e-01	67	none	NaN	NaN
106	2	70	63	kitchen	labelme_rykdqxenmhulbdn.tif	512956.169582	512956.428171	512957.118262	7.424478e-01	53	none	NaN	NaN
106	2	71	87	kitchen	sun_agorklincwxrdtga.tif	512957.887956	512958.146543	512958.836679	8.342110e-01	77	none	NaN	NaN
106	2	72	84	kitchen	sun_aexklacwqwezaorf.tif	512959.606323	512959.864915	512960.555020	7.674741e-01	74	none	NaN	NaN
106	2	73	94	kitchen	sun_ahywdevtimnqcsln.tif	512961.324691	512961.583280	512962.273420	6.923951e-01	84	37	512962.787228	1
106	2	74	65	kitchen	sun_aamedkxepzlwuxes.tif	512963.560239	512963.818829	512964.508909	8.508952e-01	55	none	NaN	NaN
106	2	75	96	kitchen	sun_ajcbwwvdlsvjyzje.tif	512965.278608	512965.537199	512966.227741	7.507899e-01	86	39	512967.179170	1
106	2	76	106	kitchen	sun_awcpdzzznmweyyhv.tif	512967.956261	512968.214853	512968.905129	8.008426e-01	96	none	NaN	NaN
106	2	77	80	kitchen	sun_aegoxogugdkwpmpj.tif	512969.674627	512969.933222	512970.623443	8.258689e-01	70	37	512971.243093	1
106	2	78	95	kitchen	sun_aixorpehvfykdynp.tif	512972.018622	512972.277210	512972.967342	7.424478e-01	85	none	NaN	NaN
106	2	79	81	kitchen	sun_aehawpgmrlhlvcow.tif	512973.736988	512973.995577	512974.685857	8.175268e-01	71	none	NaN	NaN
106	2	80	76	kitchen	sun_acwjdupvyjsugpay.tif	512975.455357	512975.713944	512976.404031	6.590267e-01	66	39	512977.091143	1
106	2	81	61	kitchen	labelme_brsyyvweiuaazfr.tif	512977.866080	512978.124666	512978.814810	8.091847e-01	51	none	NaN	NaN
106	2	82	98	kitchen	sun_akchetnepxlcxhsu.tif	512979.584449	512979.843037	512980.533210	8.008426e-01	88	none	NaN	NaN
106	2	83	91	kitchen	sun_ahljzhgcdpomplvg.tif	512981.302816	512981.561405	512982.251550	6.506846e-01	81	none	NaN	NaN
106	2	84	72	kitchen	sun_abpwyqmlzafvklqo.tif	512983.021188	512983.279779	512983.969942	6.590267e-01	62	none	NaN	NaN
106	2	85	107	kitchen	sun_axyyrmzcupyhlivc.tif	512984.739555	512984.998146	512985.688254	7.424478e-01	97	39	512986.226900	1
106	2	86	104	kitchen	sun_auticobqsbwgoppi.tif	512987.000127	512987.258722	512987.948895	6.840530e-01	94	none	NaN	NaN
106	2	87	108	kitchen	sun_aymvwlarqodbwuoc.tif	512988.718497	512988.977090	512989.667270	7.257636e-01	98	none	NaN	NaN
106	2	88	93	kitchen	sun_ahspylgoovwmwvgk.tif	512990.436871	512990.695456	512991.385651	8.258689e-01	83	none	NaN	NaN
106	2	89	86	kitchen	sun_aggjlwcdjsjcaemh.tif	512992.155236	512992.413824	512993.104038	8.175268e-01	76	none	NaN	NaN
106	2	90	103	kitchen	sun_aunzlwrbjumxhwdj.tif	512993.873602	512994.132196	512994.822383	6.506846e-01	93	none	NaN	NaN
106	2	91	73	kitchen	sun_abrcnpqqhmjwekyf.tif	512995.591974	512995.850556	512996.540744	7.341057e-01	63	none	NaN	NaN
106	2	92	89	kitchen	sun_agzzivivdpnawacl.tif	512997.310341	512997.568930	512998.259120	7.674741e-01	79	none	NaN	NaN
106	2	93	71	kitchen	sun_abftihopvusyfakt.tif	512999.028709	512999.287303	512999.977472	6.757109e-01	61	none	NaN	NaN
106	2	94	85	kitchen	sun_afuyedyxivkhecmu.tif	513000.747081	513001.005669	513001.695793	8.508952e-01	75	none	NaN	NaN
106	2	95	64	kitchen	sun_aadbddgrdsjugojn.tif	513002.465448	513002.724040	513003.414207	6.673688e-01	54	none	NaN	NaN
106	2	96	110	kitchen	sun_azmutvzbxypaceni.tif	513004.183820	513004.442407	513005.132677	8.425531e-01	100	none	NaN	NaN
106	2	97	70	kitchen	sun_abdxkyyxwfskuaqb.tif	513005.902191	513006.160780	513006.850975	8.342110e-01	60	none	NaN	NaN
106	2	98	99	kitchen	sun_akcjzhbbjlbogpdi.tif	513007.620560	513007.879142	513008.569340	7.841583e-01	89	none	NaN	NaN
106	2	99	79	kitchen	sun_admlmbcdswaszruo.tif	513009.338927	513009.597516	513010.287676	8.091847e-01	69	none	NaN	NaN
106	2	100	69	kitchen	sun_abdenxonkemggwsq.tif	513011.057297	513011.315873	513012.006114	7.257636e-01	59	none	NaN	NaN
106	3	1	27	bathroom	sun_ahcvzmoyaycdoftf.tif	513026.163928	513026.422541	513027.237806	8.258689e-01	17	none	NaN	NaN
106	3	2	21	bathroom	sun_aggnnqpdorgxpvce.tif	513028.007420	513028.266010	513029.081402	6.923951e-01	11	39	513029.955235	1
106	3	3	19	bathroom	sun_aclfzgynxzxlbepz.tif	513030.726782	513030.985374	513031.800682	8.258689e-01	9	none	NaN	NaN
106	3	4	46	bathroom	sun_apmqjbnwghzuhhzh.tif	513032.570276	513032.828863	513033.644245	7.090794e-01	36	none	NaN	NaN
106	3	5	17	bathroom	sun_acegryoqftbzowsg.tif	513034.413769	513034.672354	513035.487721	8.425531e-01	7	none	NaN	NaN
106	3	6	34	bathroom	sun_alkosphxlxwjwgjd.tif	513036.257261	513036.515848	513037.331136	7.257636e-01	24	none	NaN	NaN
106	3	7	18	bathroom	sun_acgyywnybuveqsro.tif	513038.100756	513038.359345	513039.174722	7.090794e-01	8	none	NaN	NaN
106	3	8	38	bathroom	sun_anhioqovhscjqqwb.tif	513039.944247	513040.202835	513041.018223	6.757109e-01	28	none	NaN	NaN
106	3	9	50	bathroom	sun_aspsyogrekjtfozg.tif	513041.787741	513042.046327	513042.861578	8.425531e-01	40	none	NaN	NaN
106	3	10	29	bathroom	sun_ahqjwnzgolcaoidx.tif	513043.631234	513043.889817	513044.705042	7.090794e-01	19	37	513045.451182	1
106	3	11	53	bathroom	sun_ausgutylgojavyoq.tif	513046.225471	513046.484064	513047.299410	6.590267e-01	43	none	NaN	NaN
106	3	12	59	bathroom	sun_axyrejkiiaqiurjk.tif	513048.068965	513048.327552	513049.142914	7.841583e-01	49	none	NaN	NaN
106	3	13	24	bathroom	sun_agrwbmhcpmfuwmsg.tif	513049.912454	513050.171048	513050.986292	8.008426e-01	14	none	NaN	NaN
106	3	14	58	bathroom	sun_axxbkopsgyouuebh.tif	513051.755951	513052.014539	513052.829875	7.507899e-01	48	none	NaN	NaN
106	3	15	31	bathroom	sun_akiytfaagpdsphgz.tif	513053.599441	513053.858029	513054.673400	6.840530e-01	21	none	NaN	NaN
106	3	16	13	bathroom	sun_aavhrsfjbserjtht.tif	513055.442935	513055.701522	513056.516796	7.591320e-01	3	none	NaN	NaN
106	3	17	54	bathroom	sun_auzqhkafidnkrwmo.tif	513057.286426	513057.545012	513058.360372	8.342110e-01	44	37	513058.875140	1
106	3	18	37	bathroom	sun_amzlamotzwfkwjco.tif	513059.647100	513059.905692	513060.720943	7.341057e-01	27	none	NaN	NaN
106	3	19	49	bathroom	sun_asfwthctfqerjvxr.tif	513061.490593	513061.749183	513062.564391	7.174215e-01	39	none	NaN	NaN
106	3	20	45	bathroom	sun_apkxzenqapsujocq.tif	513063.334086	513063.592677	513064.408019	6.757109e-01	35	none	NaN	NaN
106	3	21	39	bathroom	sun_anryaplzeujmzfkd.tif	513065.177575	513065.436168	513066.251558	6.506846e-01	29	none	NaN	NaN
106	3	22	51	bathroom	sun_atstyziqcmkahyxk.tif	513067.021069	513067.279661	513068.094873	7.674741e-01	41	none	NaN	NaN
106	3	23	30	bathroom	sun_ajlawzvmubibwbpy.tif	513068.864567	513069.123157	513069.938375	6.923951e-01	20	none	NaN	NaN
106	3	24	33	bathroom	sun_aljolscmmzydegqp.tif	513070.708061	513070.966649	513071.782003	7.841583e-01	23	none	NaN	NaN
106	3	25	20	bathroom	sun_afcoljnjfoxjtgja.tif	513072.551548	513072.810140	513073.625518	6.757109e-01	10	none	NaN	NaN
106	3	26	60	bathroom	sun_azqyogdvyhahyram.tif	513074.395044	513074.653637	513075.468884	8.091847e-01	50	none	NaN	NaN
106	3	27	22	bathroom	sun_agguqiubmwhqqunb.tif	513076.238534	513076.497125	513077.312485	7.674741e-01	12	39	513077.931032	1
106	3	28	55	bathroom	sun_avhrdrntsqrjzccq.tif	513078.707651	513078.966241	513079.781493	7.174215e-01	45	none	NaN	NaN
106	3	29	52	bathroom	sun_aunuadmjocsddsrl.tif	513080.551145	513080.809732	513081.624995	7.007372e-01	42	none	NaN	NaN
106	3	30	14	bathroom	sun_abapwbhyhkfixyex.tif	513082.394638	513082.653223	513083.468541	7.925005e-01	4	none	NaN	NaN
106	3	31	35	bathroom	sun_alotolagknyrgtsk.tif	513084.238126	513084.496725	513085.312100	7.758162e-01	25	39	513086.067331	1
106	3	32	11	bathroom	labelme_sfxiulhjbhlyiyt.tif	513086.840711	513087.099294	513087.914667	7.341057e-01	1	none	NaN	NaN
106	3	33	48	bathroom	sun_aqrpegblszgcoujh.tif	513088.684200	513088.942790	513089.758132	8.258689e-01	38	none	NaN	NaN
106	3	34	28	bathroom	sun_ahijqszoswveeyji.tif	513090.527698	513090.786279	513091.601488	7.507899e-01	18	39	513092.291139	1
106	3	35	57	bathroom	sun_axldvoqbuvuggfmq.tif	513093.063538	513093.322130	513094.137525	7.925005e-01	47	none	NaN	NaN
106	3	36	26	bathroom	sun_ahaulkltgpkeeemi.tif	513094.907032	513095.165619	513095.980893	7.257636e-01	16	none	NaN	NaN
106	3	37	23	bathroom	sun_aghyqhbptboemmoq.tif	513096.750526	513097.009115	513097.824374	8.175268e-01	13	none	NaN	NaN
106	3	38	47	bathroom	sun_apynckhmoftszqoq.tif	513098.585674	513098.844267	513099.659667	7.424478e-01	37	none	NaN	NaN
106	3	39	42	bathroom	sun_apeeialkgkuxddgh.tif	513100.429168	513100.687764	513101.503044	7.674741e-01	32	39	513102.122879	1
106	3	40	25	bathroom	sun_agyqfjcfkdcydepw.tif	513102.898283	513103.156871	513103.972218	6.840530e-01	15	none	NaN	NaN
106	3	41	32	bathroom	sun_aleqenyvunhactkl.tif	513104.741776	513105.000366	513105.815621	7.507899e-01	22	37	513106.691240	0
106	3	42	12	bathroom	sun_aapitsgbtktqubfy.tif	513107.469475	513107.728067	513108.543306	8.008426e-01	2	none	NaN	NaN
106	3	43	36	bathroom	sun_ambriybtogmepttm.tif	513109.312971	513109.571560	513110.386760	7.007372e-01	26	none	NaN	NaN
106	3	44	44	bathroom	sun_apkruvsevgegsdwp.tif	513111.156465	513111.415054	513112.230310	8.508952e-01	34	none	NaN	NaN
106	3	45	56	bathroom	sun_awnqiikzaispgmwo.tif	513112.999955	513113.258542	513114.073866	6.757109e-01	46	none	NaN	NaN
106	3	46	15	bathroom	sun_abjtwfukuwddzted.tif	513114.843450	513115.102032	513115.917391	8.425531e-01	5	none	NaN	NaN
106	3	47	16	bathroom	sun_acduarbnmmoglmiv.tif	513116.686943	513116.945530	513117.760775	6.923951e-01	6	none	NaN	NaN
106	3	48	43	bathroom	sun_apjevzvycyhuqghb.tif	513118.530435	513118.789027	513119.604414	7.758162e-01	33	none	NaN	NaN
106	3	49	40	bathroom	sun_aofnryafpsjimzsb.tif	513120.373931	513120.632518	513121.447885	6.673688e-01	30	none	NaN	NaN
106	3	50	41	bathroom	sun_aoybiabnpadelefl.tif	513122.217421	513122.476016	513123.291382	6.673688e-01	31	none	NaN	NaN
106	3	51	27	bathroom	sun_ahcvzmoyaycdoftf.tif	513124.060912	513124.319502	513125.134926	8.342110e-01	17	37	513125.747048	1
106	3	52	36	bathroom	sun_ambriybtogmepttm.tif	513126.521683	513126.780276	513127.595538	8.342110e-01	26	none	NaN	NaN
106	3	53	37	bathroom	sun_amzlamotzwfkwjco.tif	513128.365177	513128.623769	513129.439026	8.091847e-01	27	none	NaN	NaN
106	3	54	14	bathroom	sun_abapwbhyhkfixyex.tif	513130.208670	513130.467261	513131.282479	8.008426e-01	4	none	NaN	NaN
106	3	55	40	bathroom	sun_aofnryafpsjimzsb.tif	513132.052162	513132.310758	513133.126120	7.174215e-01	30	none	NaN	NaN
106	3	56	41	bathroom	sun_aoybiabnpadelefl.tif	513133.895659	513134.154246	513134.969563	6.590267e-01	31	none	NaN	NaN
106	3	57	39	bathroom	sun_anryaplzeujmzfkd.tif	513135.739153	513135.997745	513136.813081	6.840530e-01	29	none	NaN	NaN
106	3	58	43	bathroom	sun_apjevzvycyhuqghb.tif	513137.582645	513137.841232	513138.656564	6.923951e-01	33	none	NaN	NaN
106	3	59	60	bathroom	sun_azqyogdvyhahyram.tif	513139.426139	513139.684726	513140.500107	7.007372e-01	50	39	513141.075055	1
106	3	60	38	bathroom	sun_anhioqovhscjqqwb.tif	513141.853543	513142.112131	513142.927350	7.257636e-01	28	none	NaN	NaN
106	3	61	12	bathroom	sun_aapitsgbtktqubfy.tif	513143.697033	513143.955625	513144.770822	7.424478e-01	2	none	NaN	NaN
106	3	62	11	bathroom	labelme_sfxiulhjbhlyiyt.tif	513145.540528	513145.799122	513146.614402	7.758162e-01	1	none	NaN	NaN
106	3	63	30	bathroom	sun_ajlawzvmubibwbpy.tif	513147.384023	513147.642612	513148.458021	8.175268e-01	20	none	NaN	NaN
106	3	64	28	bathroom	sun_ahijqszoswveeyji.tif	513149.227511	513149.486105	513150.301465	6.506846e-01	18	none	NaN	NaN
106	3	65	48	bathroom	sun_aqrpegblszgcoujh.tif	513151.071008	513151.329597	513152.144997	7.507899e-01	38	none	NaN	NaN
106	3	66	25	bathroom	sun_agyqfjcfkdcydepw.tif	513152.914504	513153.173089	513153.988456	7.424478e-01	15	none	NaN	NaN
106	3	67	23	bathroom	sun_aghyqhbptboemmoq.tif	513154.757994	513155.016586	513155.831809	6.923951e-01	13	none	NaN	NaN
106	3	68	16	bathroom	sun_acduarbnmmoglmiv.tif	513156.593145	513156.851734	513157.667073	7.341057e-01	6	none	NaN	NaN
106	3	69	58	bathroom	sun_axxbkopsgyouuebh.tif	513158.436641	513158.695231	513159.510445	8.258689e-01	48	none	NaN	NaN
106	3	70	21	bathroom	sun_aggnnqpdorgxpvce.tif	513160.280130	513160.538720	513161.354006	8.175268e-01	11	none	NaN	NaN
106	3	71	26	bathroom	sun_ahaulkltgpkeeemi.tif	513162.123625	513162.382214	513163.197563	8.091847e-01	16	none	NaN	NaN
106	3	72	34	bathroom	sun_alkosphxlxwjwgjd.tif	513163.967117	513164.225705	513165.040995	6.506846e-01	24	none	NaN	NaN
106	3	73	52	bathroom	sun_aunuadmjocsddsrl.tif	513165.810606	513166.069201	513166.884459	6.673688e-01	42	none	NaN	NaN
106	3	74	15	bathroom	sun_abjtwfukuwddzted.tif	513167.654096	513167.912690	513168.727957	7.591320e-01	5	none	NaN	NaN
106	3	75	13	bathroom	sun_aavhrsfjbserjtht.tif	513169.497591	513169.756184	513170.571388	7.674741e-01	3	none	NaN	NaN
106	3	76	46	bathroom	sun_apmqjbnwghzuhhzh.tif	513171.341087	513171.599682	513172.415024	8.425531e-01	36	none	NaN	NaN
106	3	77	59	bathroom	sun_axyrejkiiaqiurjk.tif	513173.184581	513173.443170	513174.258588	7.925005e-01	49	none	NaN	NaN
106	3	78	42	bathroom	sun_apeeialkgkuxddgh.tif	513175.028074	513175.286666	513176.101952	7.841583e-01	32	none	NaN	NaN
106	3	79	24	bathroom	sun_agrwbmhcpmfuwmsg.tif	513176.871569	513177.130162	513177.945552	8.008426e-01	14	none	NaN	NaN
106	3	80	35	bathroom	sun_alotolagknyrgtsk.tif	513178.715058	513178.973649	513179.789022	7.174215e-01	25	37	513180.467285	1
106	3	81	57	bathroom	sun_axldvoqbuvuggfmq.tif	513181.242563	513181.501155	513182.316524	8.258689e-01	47	none	NaN	NaN
106	3	82	32	bathroom	sun_aleqenyvunhactkl.tif	513183.086058	513183.344648	513184.160046	7.424478e-01	22	none	NaN	NaN
106	3	83	55	bathroom	sun_avhrdrntsqrjzccq.tif	513184.929549	513185.188135	513186.003549	7.925005e-01	45	37	513186.971175	1
106	3	84	22	bathroom	sun_agguqiubmwhqqunb.tif	513187.749012	513188.007600	513188.822994	6.590267e-01	12	none	NaN	NaN
106	3	85	45	bathroom	sun_apkxzenqapsujocq.tif	513189.592505	513189.851091	513190.666315	7.341057e-01	35	none	NaN	NaN
106	3	86	20	bathroom	sun_afcoljnjfoxjtgja.tif	513191.435998	513191.694583	513192.509844	7.841583e-01	10	37	513193.075079	1
106	3	87	19	bathroom	sun_aclfzgynxzxlbepz.tif	513193.846719	513194.105307	513194.920572	7.591320e-01	9	none	NaN	NaN
106	3	88	31	bathroom	sun_akiytfaagpdsphgz.tif	513195.690213	513195.948800	513196.764037	7.591320e-01	21	none	NaN	NaN
106	3	89	47	bathroom	sun_apynckhmoftszqoq.tif	513197.533706	513197.792295	513198.607562	8.508952e-01	37	none	NaN	NaN
106	3	90	17	bathroom	sun_acegryoqftbzowsg.tif	513199.377193	513199.635787	513200.451064	6.840530e-01	7	none	NaN	NaN
106	3	91	33	bathroom	sun_aljolscmmzydegqp.tif	513201.220713	513201.479281	513202.294678	7.257636e-01	23	none	NaN	NaN
106	3	92	51	bathroom	sun_atstyziqcmkahyxk.tif	513203.064186	513203.322773	513204.138050	6.673688e-01	41	39	513204.923148	0
106	3	93	54	bathroom	sun_auzqhkafidnkrwmo.tif	513205.700124	513205.958714	513206.773965	8.175268e-01	44	none	NaN	NaN
106	3	94	18	bathroom	sun_acgyywnybuveqsro.tif	513207.543621	513207.802210	513208.617711	7.007372e-01	8	none	NaN	NaN
106	3	95	50	bathroom	sun_aspsyogrekjtfozg.tif	513209.387116	513209.645705	513210.461110	7.090794e-01	40	none	NaN	NaN
106	3	96	53	bathroom	sun_ausgutylgojavyoq.tif	513211.230610	513211.489196	513212.304590	7.758162e-01	43	none	NaN	NaN
106	3	97	56	bathroom	sun_awnqiikzaispgmwo.tif	513213.074097	513213.332689	513214.148018	8.091847e-01	46	37	513214.827293	1
106	3	98	49	bathroom	sun_asfwthctfqerjvxr.tif	513215.601603	513215.860182	513216.675527	7.591320e-01	39	none	NaN	NaN
106	3	99	44	bathroom	sun_apkruvsevgegsdwp.tif	513217.445100	513217.703687	513218.518963	6.590267e-01	34	none	NaN	NaN
106	3	100	29	bathroom	sun_ahqjwnzgolcaoidx.tif	513219.288588	513219.547178	513220.362429	8.342110e-01	19	none	NaN	NaN
106	4	1	68	kitchen	sun_aaxxjlsuzvqlgylf.tif	513241.018448	513241.277039	513241.975535	7.257636e-01	58	none	NaN	NaN
106	4	2	77	kitchen	sun_acxkpeoqbwcxfvip.tif	513242.745163	513243.003746	513243.702318	7.007372e-01	67	none	NaN	NaN
106	4	3	79	kitchen	sun_admlmbcdswaszruo.tif	513244.471872	513244.730460	513245.428944	8.175268e-01	69	none	NaN	NaN
106	4	4	86	kitchen	sun_aggjlwcdjsjcaemh.tif	513246.198583	513246.457174	513247.155590	7.090794e-01	76	none	NaN	NaN
106	4	5	94	kitchen	sun_ahywdevtimnqcsln.tif	513247.925290	513248.183881	513248.882356	7.007372e-01	84	none	NaN	NaN
106	4	6	95	kitchen	sun_aixorpehvfykdynp.tif	513249.652004	513249.910590	513250.609042	6.757109e-01	85	none	NaN	NaN
106	4	7	75	kitchen	sun_acgtpgfybqjmzeyw.tif	513251.378711	513251.637306	513252.335819	7.507899e-01	65	none	NaN	NaN
106	4	8	88	kitchen	sun_agubuxuukhzyzpdp.tif	513253.105424	513253.364013	513254.062573	6.590267e-01	78	none	NaN	NaN
106	4	9	85	kitchen	sun_afuyedyxivkhecmu.tif	513254.832080	513255.090721	513255.789232	7.841583e-01	75	37	513256.371030	1
106	4	10	104	kitchen	sun_auticobqsbwgoppi.tif	513257.142760	513257.401347	513258.099802	7.591320e-01	94	39	513258.827155	1
106	4	11	72	kitchen	sun_abpwyqmlzafvklqo.tif	513259.603525	513259.862116	513260.560534	7.925005e-01	62	none	NaN	NaN
106	4	12	66	kitchen	sun_aapllqyqlykszopd.tif	513261.330238	513261.588824	513262.287342	7.257636e-01	56	none	NaN	NaN
106	4	13	69	kitchen	sun_abdenxonkemggwsq.tif	513263.056950	513263.315541	513264.013986	8.091847e-01	59	39	513264.859140	1
106	4	14	108	kitchen	sun_aymvwlarqodbwuoc.tif	513265.634501	513265.893088	513266.591676	6.757109e-01	98	none	NaN	NaN
106	4	15	105	kitchen	sun_avszsnwsbuqfgzbn.tif	513267.361214	513267.619805	513268.318397	7.507899e-01	95	none	NaN	NaN
106	4	16	78	kitchen	sun_adgqasybjyktddhj.tif	513269.087922	513269.346513	513270.044983	8.008426e-01	68	none	NaN	NaN
106	4	17	101	kitchen	sun_aqeaevwwwjoqhzvl.tif	513270.814635	513271.073224	513271.771845	8.508952e-01	91	39	513272.507136	1
106	4	18	99	kitchen	sun_akcjzhbbjlbogpdi.tif	513273.283747	513273.542337	513274.240896	6.840530e-01	89	none	NaN	NaN
106	4	19	90	kitchen	sun_ahdycvpopffkzzsu.tif	513275.010457	513275.269052	513275.967569	7.424478e-01	80	none	NaN	NaN
106	4	20	70	kitchen	sun_abdxkyyxwfskuaqb.tif	513276.737169	513276.995756	513277.694343	8.342110e-01	60	none	NaN	NaN
106	4	21	81	kitchen	sun_aehawpgmrlhlvcow.tif	513278.463881	513278.722465	513279.421009	8.008426e-01	71	37	513280.259124	0
106	4	22	106	kitchen	sun_awcpdzzznmweyyhv.tif	513281.033084	513281.291676	513281.990263	8.091847e-01	96	none	NaN	NaN
106	4	23	93	kitchen	sun_ahspylgoovwmwvgk.tif	513282.759805	513283.018393	513283.717003	6.506846e-01	83	none	NaN	NaN
106	4	24	97	kitchen	sun_ajkqhtgcbgpcwrwn.tif	513284.486514	513284.745104	513285.443544	7.174215e-01	87	none	NaN	NaN
106	4	25	91	kitchen	sun_ahljzhgcdpomplvg.tif	513286.213223	513286.471812	513287.170261	7.257636e-01	81	none	NaN	NaN
106	4	26	96	kitchen	sun_ajcbwwvdlsvjyzje.tif	513287.939933	513288.198525	513288.896957	8.091847e-01	86	none	NaN	NaN
106	4	27	62	kitchen	labelme_kxvouciolcpqplr.tif	513289.666648	513289.925233	513290.623689	7.758162e-01	52	none	NaN	NaN
106	4	28	109	kitchen	sun_aypmqwcualkenuoe.tif	513291.393357	513291.651948	513292.350482	7.758162e-01	99	37	513292.955093	1
106	4	29	76	kitchen	sun_acwjdupvyjsugpay.tif	513293.729003	513293.987587	513294.686134	8.091847e-01	66	none	NaN	NaN
106	4	30	87	kitchen	sun_agorklincwxrdtga.tif	513295.455715	513295.714298	513296.412860	8.425531e-01	77	none	NaN	NaN
106	4	31	102	kitchen	sun_auaiucuqpdausiva.tif	513297.182423	513297.441014	513298.139532	8.342110e-01	92	none	NaN	NaN
106	4	32	110	kitchen	sun_azmutvzbxypaceni.tif	513298.909138	513299.167727	513299.866180	7.674741e-01	100	39	513300.698887	1
106	4	33	98	kitchen	sun_akchetnepxlcxhsu.tif	513301.470006	513301.728542	513302.427181	6.673688e-01	88	none	NaN	NaN
106	4	34	100	kitchen	sun_amjjdeyrggfqgmom.tif	513303.196718	513303.455300	513304.153892	7.341057e-01	90	39	513304.955042	0
106	4	35	107	kitchen	sun_axyyrmzcupyhlivc.tif	513305.732558	513305.991151	513306.689778	7.674741e-01	97	none	NaN	NaN
106	4	36	65	kitchen	sun_aamedkxepzlwuxes.tif	513307.459273	513307.717864	513308.416350	8.175268e-01	55	none	NaN	NaN
106	4	37	64	kitchen	sun_aadbddgrdsjugojn.tif	513309.185979	513309.444570	513310.143112	7.341057e-01	54	37	513310.747288	1
106	4	38	89	kitchen	sun_agzzivivdpnawacl.tif	513311.521627	513311.780216	513312.478630	8.425531e-01	79	none	NaN	NaN
106	4	39	103	kitchen	sun_aunzlwrbjumxhwdj.tif	513313.248338	513313.506926	513314.205493	6.840530e-01	93	none	NaN	NaN
106	4	40	71	kitchen	sun_abftihopvusyfakt.tif	513314.975053	513315.233640	513315.932107	7.424478e-01	61	none	NaN	NaN
106	4	41	83	kitchen	sun_aeqdocilnnpuvuhx.tif	513316.701763	513316.960354	513317.658806	6.506846e-01	73	none	NaN	NaN
106	4	42	73	kitchen	sun_abrcnpqqhmjwekyf.tif	513318.428475	513318.687062	513319.385503	6.506846e-01	63	none	NaN	NaN
106	4	43	84	kitchen	sun_aexklacwqwezaorf.tif	513320.155182	513320.413769	513321.112378	7.174215e-01	74	none	NaN	NaN
106	4	44	92	kitchen	sun_ahpczsiumwwocjkv.tif	513321.881896	513322.140484	513322.839075	7.674741e-01	82	none	NaN	NaN
106	4	45	82	kitchen	sun_aenotlpyftoioydp.tif	513323.608601	513323.867191	513324.565640	8.258689e-01	72	39	513325.147106	1
106	4	46	80	kitchen	sun_aegoxogugdkwpmpj.tif	513325.919224	513326.177818	513326.876499	6.923951e-01	70	none	NaN	NaN
106	4	47	61	kitchen	labelme_brsyyvweiuaazfr.tif	513327.645938	513327.904530	513328.603094	7.090794e-01	51	none	NaN	NaN
106	4	48	63	kitchen	labelme_rykdqxenmhulbdn.tif	513329.372647	513329.631237	513330.329790	8.175268e-01	53	37	513330.883040	1
106	4	49	67	kitchen	sun_aarfiyshqohlwkmo.tif	513331.658242	513331.916831	513332.615253	7.007372e-01	57	none	NaN	NaN
106	4	50	74	kitchen	sun_acfmftudsenhrfhy.tif	513333.384958	513333.643544	513334.341965	7.424478e-01	64	none	NaN	NaN
106	4	51	91	kitchen	sun_ahljzhgcdpomplvg.tif	513335.111668	513335.370258	513336.068811	7.925005e-01	81	none	NaN	NaN
106	4	52	85	kitchen	sun_afuyedyxivkhecmu.tif	513336.838377	513337.096961	513337.795420	8.258689e-01	75	none	NaN	NaN
106	4	53	78	kitchen	sun_adgqasybjyktddhj.tif	513338.565086	513338.823677	513339.522279	6.757109e-01	68	none	NaN	NaN
106	4	54	92	kitchen	sun_ahpczsiumwwocjkv.tif	513340.291797	513340.550384	513341.248896	6.590267e-01	82	none	NaN	NaN
106	4	55	87	kitchen	sun_agorklincwxrdtga.tif	513342.018506	513342.277100	513342.975574	8.258689e-01	77	none	NaN	NaN
106	4	56	102	kitchen	sun_auaiucuqpdausiva.tif	513343.745220	513344.003812	513344.702296	7.257636e-01	92	none	NaN	NaN
106	4	57	66	kitchen	sun_aapllqyqlykszopd.tif	513345.471931	513345.730517	513346.428938	8.008426e-01	56	39	513347.035194	1
106	4	58	106	kitchen	sun_awcpdzzznmweyyhv.tif	513347.807580	513348.066168	513348.764656	7.090794e-01	96	none	NaN	NaN
106	4	59	64	kitchen	sun_aadbddgrdsjugojn.tif	513349.534286	513349.792874	513350.491338	7.090794e-01	54	none	NaN	NaN
106	4	60	80	kitchen	sun_aegoxogugdkwpmpj.tif	513351.260998	513351.519589	513352.218010	6.673688e-01	70	none	NaN	NaN
106	4	61	73	kitchen	sun_abrcnpqqhmjwekyf.tif	513352.987708	513353.246298	513353.944906	7.674741e-01	63	none	NaN	NaN
106	4	62	105	kitchen	sun_avszsnwsbuqfgzbn.tif	513354.714420	513354.973007	513355.671483	7.424478e-01	95	none	NaN	NaN
106	4	63	62	kitchen	labelme_kxvouciolcpqplr.tif	513356.441130	513356.699723	513357.398344	7.174215e-01	52	none	NaN	NaN
106	4	64	89	kitchen	sun_agzzivivdpnawacl.tif	513358.167842	513358.426432	513359.125024	6.673688e-01	79	none	NaN	NaN
106	4	65	103	kitchen	sun_aunzlwrbjumxhwdj.tif	513359.894549	513360.153142	513360.851652	8.258689e-01	93	37	513361.419194	1
106	4	66	108	kitchen	sun_aymvwlarqodbwuoc.tif	513362.196836	513362.455424	513363.154024	8.425531e-01	98	none	NaN	NaN
106	4	67	72	kitchen	sun_abpwyqmlzafvklqo.tif	513363.923544	513364.182127	513364.880597	7.591320e-01	62	none	NaN	NaN
106	4	68	70	kitchen	sun_abdxkyyxwfskuaqb.tif	513365.650254	513365.908837	513366.607254	6.923951e-01	60	none	NaN	NaN
106	4	69	68	kitchen	sun_aaxxjlsuzvqlgylf.tif	513367.376967	513367.635555	513368.334030	6.757109e-01	58	37	513368.859261	1
106	4	70	110	kitchen	sun_azmutvzbxypaceni.tif	513369.637538	513369.896125	513370.594752	7.507899e-01	100	none	NaN	NaN
106	4	71	107	kitchen	sun_axyyrmzcupyhlivc.tif	513371.364250	513371.622839	513372.321267	6.923951e-01	97	none	NaN	NaN
106	4	72	97	kitchen	sun_ajkqhtgcbgpcwrwn.tif	513373.090957	513373.349547	513374.047985	7.341057e-01	87	none	NaN	NaN
106	4	73	65	kitchen	sun_aamedkxepzlwuxes.tif	513374.817667	513375.076257	513375.774757	7.591320e-01	55	39	513376.387231	1
106	4	74	99	kitchen	sun_akcjzhbbjlbogpdi.tif	513377.161654	513377.420248	513378.118835	6.840530e-01	89	none	NaN	NaN
106	4	75	94	kitchen	sun_ahywdevtimnqcsln.tif	513378.888369	513379.146961	513379.845432	7.841583e-01	84	none	NaN	NaN
106	4	76	83	kitchen	sun_aeqdocilnnpuvuhx.tif	513380.615078	513380.873670	513381.572158	8.342110e-01	73	none	NaN	NaN
106	4	77	86	kitchen	sun_aggjlwcdjsjcaemh.tif	513382.341788	513382.600380	513383.298985	6.673688e-01	76	none	NaN	NaN
106	4	78	95	kitchen	sun_aixorpehvfykdynp.tif	513384.068498	513384.327091	513385.025598	7.591320e-01	85	none	NaN	NaN
106	4	79	74	kitchen	sun_acfmftudsenhrfhy.tif	513385.795208	513386.053798	513386.752214	7.591320e-01	64	none	NaN	NaN
106	4	80	77	kitchen	sun_acxkpeoqbwcxfvip.tif	513387.521923	513387.780506	513388.478961	7.758162e-01	67	none	NaN	NaN
106	4	81	79	kitchen	sun_admlmbcdswaszruo.tif	513389.248631	513389.507223	513390.205759	7.925005e-01	69	none	NaN	NaN
106	4	82	84	kitchen	sun_aexklacwqwezaorf.tif	513390.975345	513391.233930	513391.932478	8.508952e-01	74	none	NaN	NaN
106	4	83	88	kitchen	sun_agubuxuukhzyzpdp.tif	513392.702051	513392.960641	513393.659270	7.925005e-01	78	none	NaN	NaN
106	4	84	109	kitchen	sun_aypmqwcualkenuoe.tif	513394.428761	513394.687353	513395.385937	8.425531e-01	99	none	NaN	NaN
106	4	85	63	kitchen	labelme_rykdqxenmhulbdn.tif	513396.155472	513396.414066	513397.112486	6.590267e-01	53	none	NaN	NaN
106	4	86	101	kitchen	sun_aqeaevwwwjoqhzvl.tif	513397.882184	513398.140778	513398.839286	8.342110e-01	91	none	NaN	NaN
106	4	87	93	kitchen	sun_ahspylgoovwmwvgk.tif	513399.608897	513399.867485	513400.566097	7.841583e-01	83	none	NaN	NaN
106	4	88	81	kitchen	sun_aehawpgmrlhlvcow.tif	513401.335607	513401.594197	513402.292669	7.341057e-01	71	none	NaN	NaN
106	4	89	90	kitchen	sun_ahdycvpopffkzzsu.tif	513403.062316	513403.320908	513404.019316	8.258689e-01	80	none	NaN	NaN
106	4	90	98	kitchen	sun_akchetnepxlcxhsu.tif	513404.789026	513405.047614	513405.746165	7.758162e-01	88	none	NaN	NaN
106	4	91	69	kitchen	sun_abdenxonkemggwsq.tif	513406.515737	513406.774326	513407.472800	6.923951e-01	59	none	NaN	NaN
106	4	92	96	kitchen	sun_ajcbwwvdlsvjyzje.tif	513408.242449	513408.501038	513409.199494	6.840530e-01	86	none	NaN	NaN
106	4	93	75	kitchen	sun_acgtpgfybqjmzeyw.tif	513409.969156	513410.227763	513410.926295	8.175268e-01	65	none	NaN	NaN
106	4	94	76	kitchen	sun_acwjdupvyjsugpay.tif	513411.695871	513411.954461	513412.653048	7.174215e-01	66	none	NaN	NaN
106	4	95	104	kitchen	sun_auticobqsbwgoppi.tif	513413.422582	513413.681170	513414.379801	8.008426e-01	94	none	NaN	NaN
106	4	96	82	kitchen	sun_aenotlpyftoioydp.tif	513415.149290	513415.407874	513416.106291	7.841583e-01	72	none	NaN	NaN
106	4	97	61	kitchen	labelme_brsyyvweiuaazfr.tif	513416.875999	513417.134589	513417.833116	7.007372e-01	51	none	NaN	NaN
106	4	98	71	kitchen	sun_abftihopvusyfakt.tif	513418.602713	513418.861301	513419.559783	6.590267e-01	61	none	NaN	NaN
106	4	99	67	kitchen	sun_aarfiyshqohlwkmo.tif	513420.329425	513420.588011	513421.286596	6.923951e-01	57	none	NaN	NaN
106	4	100	100	kitchen	sun_amjjdeyrggfqgmom.tif	513422.056132	513422.314722	513423.013332	7.507899e-01	90	none	NaN	NaN
106	5	1	47	bathroom	sun_apynckhmoftszqoq.tif	513459.501568	513459.760148	513460.466925	7.591320e-01	37	none	NaN	NaN
106	5	2	55	bathroom	sun_avhrdrntsqrjzccq.tif	513461.236615	513461.495202	513462.201961	6.506846e-01	45	37	513463.051308	0
106	5	3	45	bathroom	sun_apkxzenqapsujocq.tif	513463.822510	513464.081099	513464.788001	7.424478e-01	35	none	NaN	NaN
106	5	4	41	bathroom	sun_aoybiabnpadelefl.tif	513465.557561	513465.816151	513466.523042	7.090794e-01	31	none	NaN	NaN
106	5	5	21	bathroom	sun_aggnnqpdorgxpvce.tif	513467.292612	513467.551203	513468.258369	7.174215e-01	11	none	NaN	NaN
106	5	6	36	bathroom	sun_ambriybtogmepttm.tif	513469.027667	513469.286255	513469.993054	8.508952e-01	26	none	NaN	NaN
106	5	7	24	bathroom	sun_agrwbmhcpmfuwmsg.tif	513470.762717	513471.021308	513471.728260	6.757109e-01	14	none	NaN	NaN
106	5	8	37	bathroom	sun_amzlamotzwfkwjco.tif	513472.497772	513472.756358	513473.463314	7.007372e-01	27	none	NaN	NaN
106	5	9	20	bathroom	sun_afcoljnjfoxjtgja.tif	513474.232823	513474.491410	513475.198194	7.257636e-01	10	none	NaN	NaN
106	5	10	40	bathroom	sun_aofnryafpsjimzsb.tif	513475.967873	513476.226466	513476.933429	7.507899e-01	30	none	NaN	NaN
106	5	11	42	bathroom	sun_apeeialkgkuxddgh.tif	513477.702930	513477.961517	513478.668289	8.091847e-01	32	none	NaN	NaN
106	5	12	13	bathroom	sun_aavhrsfjbserjtht.tif	513479.437980	513479.696569	513480.403339	8.175268e-01	3	none	NaN	NaN
106	5	13	11	bathroom	labelme_sfxiulhjbhlyiyt.tif	513481.173029	513481.431624	513482.138584	7.257636e-01	1	none	NaN	NaN
106	5	14	34	bathroom	sun_alkosphxlxwjwgjd.tif	513482.908083	513483.166671	513483.873636	6.590267e-01	24	37	513484.491374	1
106	5	15	51	bathroom	sun_atstyziqcmkahyxk.tif	513485.268755	513485.527342	513486.234148	7.257636e-01	41	39	513486.995110	1
106	5	16	32	bathroom	sun_aleqenyvunhactkl.tif	513487.771236	513488.029820	513488.736689	7.841583e-01	22	none	NaN	NaN
106	5	17	26	bathroom	sun_ahaulkltgpkeeemi.tif	513489.506286	513489.764875	513490.471658	7.925005e-01	16	none	NaN	NaN
106	5	18	33	bathroom	sun_aljolscmmzydegqp.tif	513491.241339	513491.499930	513492.206885	7.007372e-01	23	37	513492.755127	1
106	5	19	28	bathroom	sun_ahijqszoswveeyji.tif	513493.526934	513493.785528	513494.492327	7.007372e-01	18	none	NaN	NaN
106	5	20	19	bathroom	sun_aclfzgynxzxlbepz.tif	513495.261987	513495.520577	513496.227515	7.591320e-01	9	none	NaN	NaN
106	5	21	35	bathroom	sun_alotolagknyrgtsk.tif	513496.997041	513497.255628	513497.962479	7.174215e-01	25	none	NaN	NaN
106	5	22	58	bathroom	sun_axxbkopsgyouuebh.tif	513498.732095	513498.990689	513499.697498	8.508952e-01	48	none	NaN	NaN
106	5	23	27	bathroom	sun_ahcvzmoyaycdoftf.tif	513500.467147	513500.725738	513501.432491	7.174215e-01	17	none	NaN	NaN
106	5	24	23	bathroom	sun_aghyqhbptboemmoq.tif	513502.202200	513502.460784	513503.167565	8.091847e-01	13	none	NaN	NaN
106	5	25	56	bathroom	sun_awnqiikzaispgmwo.tif	513503.937252	513504.195838	513504.902606	8.175268e-01	46	none	NaN	NaN
106	5	26	15	bathroom	sun_abjtwfukuwddzted.tif	513505.672302	513505.930893	513506.637695	7.424478e-01	5	none	NaN	NaN
106	5	27	48	bathroom	sun_aqrpegblszgcoujh.tif	513507.407352	513507.665947	513508.372846	8.425531e-01	38	none	NaN	NaN
106	5	28	18	bathroom	sun_acgyywnybuveqsro.tif	513509.142406	513509.401000	513510.107919	8.175268e-01	8	none	NaN	NaN
106	5	29	60	bathroom	sun_azqyogdvyhahyram.tif	513510.877456	513511.136043	513511.842803	8.008426e-01	50	none	NaN	NaN
106	5	30	46	bathroom	sun_apmqjbnwghzuhhzh.tif	513512.612512	513512.871100	513513.578029	6.757109e-01	36	none	NaN	NaN
106	5	31	30	bathroom	sun_ajlawzvmubibwbpy.tif	513514.347564	513514.606149	513515.313078	6.590267e-01	20	none	NaN	NaN
106	5	32	31	bathroom	sun_akiytfaagpdsphgz.tif	513516.082615	513516.341203	513517.047998	8.425531e-01	21	none	NaN	NaN
106	5	33	16	bathroom	sun_acduarbnmmoglmiv.tif	513517.817667	513518.076252	513518.783130	6.673688e-01	6	none	NaN	NaN
106	5	34	29	bathroom	sun_ahqjwnzgolcaoidx.tif	513519.552716	513519.811305	513520.518142	7.090794e-01	19	39	513521.219158	1
106	5	35	49	bathroom	sun_asfwthctfqerjvxr.tif	513521.996810	513522.255399	513522.962231	7.674741e-01	39	none	NaN	NaN
106	5	36	43	bathroom	sun_apjevzvycyhuqghb.tif	513523.731861	513523.990452	513524.697293	8.008426e-01	33	none	NaN	NaN
106	5	37	22	bathroom	sun_agguqiubmwhqqunb.tif	513525.466912	513525.725501	513526.432418	7.007372e-01	12	none	NaN	NaN
106	5	38	17	bathroom	sun_acegryoqftbzowsg.tif	513527.201966	513527.460555	513528.167366	6.673688e-01	7	none	NaN	NaN
106	5	39	44	bathroom	sun_apkruvsevgegsdwp.tif	513528.937014	513529.195604	513529.902406	7.758162e-01	34	39	513530.467205	1
106	5	40	52	bathroom	sun_aunuadmjocsddsrl.tif	513531.239300	513531.497884	513532.204817	8.008426e-01	42	none	NaN	NaN
106	5	41	59	bathroom	sun_axyrejkiiaqiurjk.tif	513532.974350	513533.232938	513533.939823	8.008426e-01	49	none	NaN	NaN
106	5	42	53	bathroom	sun_ausgutylgojavyoq.tif	513534.709398	513534.967993	513535.674796	7.090794e-01	43	none	NaN	NaN
106	5	43	12	bathroom	sun_aapitsgbtktqubfy.tif	513536.444455	513536.703046	513537.409977	6.590267e-01	2	none	NaN	NaN
106	5	44	25	bathroom	sun_agyqfjcfkdcydepw.tif	513538.179501	513538.438095	513539.144984	7.674741e-01	15	none	NaN	NaN
106	5	45	14	bathroom	sun_abapwbhyhkfixyex.tif	513539.914556	513540.173149	513540.880056	7.591320e-01	4	none	NaN	NaN
106	5	46	54	bathroom	sun_auzqhkafidnkrwmo.tif	513541.649608	513541.908201	513542.615009	8.091847e-01	44	none	NaN	NaN
106	5	47	39	bathroom	sun_anryaplzeujmzfkd.tif	513543.384659	513543.643249	513544.350164	7.841583e-01	29	none	NaN	NaN
106	5	48	38	bathroom	sun_anhioqovhscjqqwb.tif	513545.119713	513545.378299	513546.085262	6.757109e-01	28	none	NaN	NaN
106	5	49	57	bathroom	sun_axldvoqbuvuggfmq.tif	513546.854767	513547.113358	513547.820174	7.758162e-01	47	none	NaN	NaN
106	5	50	50	bathroom	sun_aspsyogrekjtfozg.tif	513548.589822	513548.848405	513549.555278	8.091847e-01	40	none	NaN	NaN
106	5	51	50	bathroom	sun_aspsyogrekjtfozg.tif	513550.324874	513550.583462	513551.290413	7.674741e-01	40	none	NaN	NaN
106	5	52	58	bathroom	sun_axxbkopsgyouuebh.tif	513552.059920	513552.318515	513553.025267	8.258689e-01	48	none	NaN	NaN
106	5	53	13	bathroom	sun_aavhrsfjbserjtht.tif	513553.794973	513554.053564	513554.760489	8.258689e-01	3	none	NaN	NaN
106	5	54	28	bathroom	sun_ahijqszoswveeyji.tif	513555.530029	513555.788619	513556.495459	7.424478e-01	18	none	NaN	NaN
106	5	55	31	bathroom	sun_akiytfaagpdsphgz.tif	513557.265079	513557.523667	513558.230604	7.591320e-01	21	none	NaN	NaN
106	5	56	14	bathroom	sun_abapwbhyhkfixyex.tif	513559.000135	513559.258723	513559.965523	8.342110e-01	4	none	NaN	NaN
106	5	57	26	bathroom	sun_ahaulkltgpkeeemi.tif	513560.735158	513560.993767	513561.700589	7.341057e-01	16	none	NaN	NaN
106	5	58	45	bathroom	sun_apkxzenqapsujocq.tif	513562.470233	513562.728826	513563.435763	8.258689e-01	35	none	NaN	NaN
106	5	59	52	bathroom	sun_aunuadmjocsddsrl.tif	513564.205289	513564.463876	513565.170733	7.841583e-01	42	none	NaN	NaN
106	5	60	15	bathroom	sun_abjtwfukuwddzted.tif	513565.940339	513566.198922	513566.905809	8.425531e-01	5	none	NaN	NaN
106	5	61	42	bathroom	sun_apeeialkgkuxddgh.tif	513567.675393	513567.933984	513568.640754	8.342110e-01	32	none	NaN	NaN
106	5	62	32	bathroom	sun_aleqenyvunhactkl.tif	513569.410444	513569.669033	513570.375983	8.342110e-01	22	none	NaN	NaN
106	5	63	34	bathroom	sun_alkosphxlxwjwgjd.tif	513571.145496	513571.404085	513572.110912	7.758162e-01	24	none	NaN	NaN
106	5	64	16	bathroom	sun_acduarbnmmoglmiv.tif	513572.880550	513573.139141	513573.845965	8.258689e-01	6	none	NaN	NaN
106	5	65	44	bathroom	sun_apkruvsevgegsdwp.tif	513574.615599	513574.874191	513575.581036	7.591320e-01	34	none	NaN	NaN
106	5	66	36	bathroom	sun_ambriybtogmepttm.tif	513576.350653	513576.609241	513577.316101	7.507899e-01	26	none	NaN	NaN
106	5	67	27	bathroom	sun_ahcvzmoyaycdoftf.tif	513578.085706	513578.344300	513579.051251	6.840530e-01	17	none	NaN	NaN
106	5	68	33	bathroom	sun_aljolscmmzydegqp.tif	513579.820698	513580.079352	513580.786071	8.175268e-01	23	39	513581.538932	1
106	5	69	49	bathroom	sun_asfwthctfqerjvxr.tif	513582.314893	513582.573499	513583.280293	6.923951e-01	39	none	NaN	NaN
106	5	70	46	bathroom	sun_apmqjbnwghzuhhzh.tif	513584.049946	513584.308535	513585.015431	6.590267e-01	36	39	513585.595091	1
106	5	71	60	bathroom	sun_azqyogdvyhahyram.tif	513586.368913	513586.627501	513587.334466	6.923951e-01	50	39	513589.107148	0
106	5	72	56	bathroom	sun_awnqiikzaispgmwo.tif	513589.880721	513590.139311	513590.846237	8.342110e-01	46	none	NaN	NaN
106	5	73	53	bathroom	sun_ausgutylgojavyoq.tif	513591.615777	513591.874362	513592.581210	7.925005e-01	43	none	NaN	NaN
106	5	74	12	bathroom	sun_aapitsgbtktqubfy.tif	513593.350825	513593.609420	513594.316240	7.925005e-01	2	none	NaN	NaN
106	5	75	38	bathroom	sun_anhioqovhscjqqwb.tif	513595.085883	513595.344465	513596.051257	6.923951e-01	28	none	NaN	NaN
106	5	76	47	bathroom	sun_apynckhmoftszqoq.tif	513596.820935	513597.079522	513597.786322	6.923951e-01	37	none	NaN	NaN
106	5	77	55	bathroom	sun_avhrdrntsqrjzccq.tif	513598.555987	513598.814576	513599.521466	6.840530e-01	45	none	NaN	NaN
106	5	78	29	bathroom	sun_ahqjwnzgolcaoidx.tif	513600.291036	513600.549629	513601.256509	8.425531e-01	19	none	NaN	NaN
106	5	79	20	bathroom	sun_afcoljnjfoxjtgja.tif	513602.026092	513602.284682	513602.991537	7.841583e-01	10	37	513603.747038	1
106	5	80	59	bathroom	sun_axyrejkiiaqiurjk.tif	513604.520223	513604.778815	513605.485623	6.506846e-01	49	none	NaN	NaN
106	5	81	39	bathroom	sun_anryaplzeujmzfkd.tif	513606.255280	513606.513871	513607.220658	7.257636e-01	29	none	NaN	NaN
106	5	82	18	bathroom	sun_acgyywnybuveqsro.tif	513607.990332	513608.248921	513608.955755	7.341057e-01	8	none	NaN	NaN
106	5	83	21	bathroom	sun_aggnnqpdorgxpvce.tif	513609.725382	513609.983971	513610.690868	7.090794e-01	11	none	NaN	NaN
106	5	84	37	bathroom	sun_amzlamotzwfkwjco.tif	513611.460437	513611.719032	513612.425859	7.174215e-01	27	39	513612.971243	1
106	5	85	11	bathroom	labelme_sfxiulhjbhlyiyt.tif	513613.746035	513614.004622	513614.711428	7.341057e-01	1	37	513615.403228	1
106	5	86	35	bathroom	sun_alotolagknyrgtsk.tif	513616.173437	513616.432028	513617.138809	7.507899e-01	25	37	513617.795250	1
106	5	87	30	bathroom	sun_ajlawzvmubibwbpy.tif	513618.567475	513618.826066	513619.532905	7.674741e-01	20	none	NaN	NaN
106	5	88	57	bathroom	sun_axldvoqbuvuggfmq.tif	513620.302530	513620.561117	513621.267994	6.840530e-01	47	none	NaN	NaN
106	5	89	22	bathroom	sun_agguqiubmwhqqunb.tif	513622.037581	513622.296167	513623.003149	6.757109e-01	12	none	NaN	NaN
106	5	90	19	bathroom	sun_aclfzgynxzxlbepz.tif	513623.772633	513624.031224	513624.738132	7.341057e-01	9	none	NaN	NaN
106	5	91	25	bathroom	sun_agyqfjcfkdcydepw.tif	513625.507681	513625.766279	513626.473202	6.673688e-01	15	37	513627.019078	1
106	5	92	43	bathroom	sun_apjevzvycyhuqghb.tif	513627.793284	513628.051875	513628.758801	6.673688e-01	33	none	NaN	NaN
106	5	93	54	bathroom	sun_auzqhkafidnkrwmo.tif	513629.528338	513629.786927	513630.493796	7.758162e-01	44	none	NaN	NaN
106	5	94	51	bathroom	sun_atstyziqcmkahyxk.tif	513631.263386	513631.522013	513632.228750	7.424478e-01	41	none	NaN	NaN
106	5	95	24	bathroom	sun_agrwbmhcpmfuwmsg.tif	513632.998441	513633.257029	513633.963803	6.840530e-01	14	none	NaN	NaN
106	5	96	23	bathroom	sun_aghyqhbptboemmoq.tif	513634.733495	513634.992080	513635.698869	6.923951e-01	13	37	513636.739266	0
106	5	97	40	bathroom	sun_aofnryafpsjimzsb.tif	513637.511260	513637.769832	513638.476783	6.506846e-01	30	none	NaN	NaN
106	5	98	41	bathroom	sun_aoybiabnpadelefl.tif	513639.246296	513639.504888	513640.211702	7.507899e-01	31	none	NaN	NaN
106	5	99	48	bathroom	sun_aqrpegblszgcoujh.tif	513640.981345	513641.239940	513641.946815	7.925005e-01	38	none	NaN	NaN
106	5	100	17	bathroom	sun_acegryoqftbzowsg.tif	513642.716403	513642.974990	513643.681760	8.258689e-01	7	none	NaN	NaN
106	6	1	64	kitchen	sun_aadbddgrdsjugojn.tif	513671.394812	513671.653400	513672.393609	8.425531e-01	54	none	NaN	NaN
106	6	2	81	kitchen	sun_aehawpgmrlhlvcow.tif	513673.163227	513673.421818	513674.162153	7.090794e-01	71	none	NaN	NaN
106	6	3	108	kitchen	sun_aymvwlarqodbwuoc.tif	513674.931644	513675.190238	513675.930450	6.840530e-01	98	none	NaN	NaN
106	6	4	65	kitchen	sun_aamedkxepzlwuxes.tif	513676.700071	513676.958652	513677.698895	8.258689e-01	55	none	NaN	NaN
106	6	5	87	kitchen	sun_agorklincwxrdtga.tif	513678.468485	513678.727075	513679.467231	8.175268e-01	77	none	NaN	NaN
106	6	6	90	kitchen	sun_ahdycvpopffkzzsu.tif	513680.236906	513680.495495	513681.235740	7.507899e-01	80	none	NaN	NaN
106	6	7	99	kitchen	sun_akcjzhbbjlbogpdi.tif	513682.005321	513682.263912	513683.004221	7.674741e-01	89	39	513683.675180	1
106	6	8	93	kitchen	sun_ahspylgoovwmwvgk.tif	513684.449409	513684.707998	513685.448338	7.007372e-01	83	none	NaN	NaN
106	6	9	62	kitchen	labelme_kxvouciolcpqplr.tif	513686.217829	513686.476443	513687.216696	6.673688e-01	52	none	NaN	NaN
106	6	10	69	kitchen	sun_abdenxonkemggwsq.tif	513687.986249	513688.244835	513688.984979	6.840530e-01	59	none	NaN	NaN
106	6	11	98	kitchen	sun_akchetnepxlcxhsu.tif	513689.754669	513690.013252	513690.753389	7.841583e-01	88	none	NaN	NaN
106	6	12	106	kitchen	sun_awcpdzzznmweyyhv.tif	513691.523087	513691.781675	513692.521838	7.925005e-01	96	none	NaN	NaN
106	6	13	109	kitchen	sun_aypmqwcualkenuoe.tif	513693.291500	513693.550094	513694.290430	6.923951e-01	99	none	NaN	NaN
106	6	14	100	kitchen	sun_amjjdeyrggfqgmom.tif	513695.059920	513695.318515	513696.058797	7.174215e-01	90	none	NaN	NaN
106	6	15	89	kitchen	sun_agzzivivdpnawacl.tif	513696.828340	513697.086933	513697.827145	8.258689e-01	79	none	NaN	NaN
106	6	16	103	kitchen	sun_aunzlwrbjumxhwdj.tif	513698.596757	513698.855350	513699.595606	6.923951e-01	93	none	NaN	NaN
106	6	17	78	kitchen	sun_adgqasybjyktddhj.tif	513700.365179	513700.623762	513701.364018	8.342110e-01	68	none	NaN	NaN
106	6	18	68	kitchen	sun_aaxxjlsuzvqlgylf.tif	513702.133594	513702.392185	513703.132420	8.258689e-01	58	none	NaN	NaN
106	6	19	71	kitchen	sun_abftihopvusyfakt.tif	513703.902015	513704.160606	513704.900789	7.090794e-01	61	none	NaN	NaN
106	6	20	105	kitchen	sun_avszsnwsbuqfgzbn.tif	513705.670435	513705.929023	513706.669321	6.506846e-01	95	37	513707.194944	0
106	6	21	73	kitchen	sun_abrcnpqqhmjwekyf.tif	513707.972714	513708.231302	513708.971449	7.591320e-01	63	none	NaN	NaN
106	6	22	67	kitchen	sun_aarfiyshqohlwkmo.tif	513709.741132	513709.999721	513710.740054	7.758162e-01	57	none	NaN	NaN
106	6	23	86	kitchen	sun_aggjlwcdjsjcaemh.tif	513711.509548	513711.768143	513712.508323	8.008426e-01	76	none	NaN	NaN
106	6	24	74	kitchen	sun_acfmftudsenhrfhy.tif	513713.277968	513713.536561	513714.276794	6.590267e-01	64	none	NaN	NaN
106	6	25	66	kitchen	sun_aapllqyqlykszopd.tif	513715.046390	513715.304977	513716.045290	7.174215e-01	56	none	NaN	NaN
106	6	26	95	kitchen	sun_aixorpehvfykdynp.tif	513716.814804	513717.073399	513717.813655	7.591320e-01	85	none	NaN	NaN
106	6	27	70	kitchen	sun_abdxkyyxwfskuaqb.tif	513718.583224	513718.841811	513719.582099	8.342110e-01	60	39	513720.163077	1
106	6	28	75	kitchen	sun_acgtpgfybqjmzeyw.tif	513720.935555	513721.194143	513721.934393	8.425531e-01	65	none	NaN	NaN
106	6	29	94	kitchen	sun_ahywdevtimnqcsln.tif	513722.703971	513722.962568	513723.702813	7.424478e-01	84	none	NaN	NaN
106	6	30	85	kitchen	sun_afuyedyxivkhecmu.tif	513724.472393	513724.730984	513725.471186	7.841583e-01	75	none	NaN	NaN
106	6	31	107	kitchen	sun_axyyrmzcupyhlivc.tif	513726.240809	513726.499403	513727.239534	8.175268e-01	97	none	NaN	NaN
106	6	32	91	kitchen	sun_ahljzhgcdpomplvg.tif	513728.009233	513728.267818	513729.007993	7.257636e-01	81	none	NaN	NaN
106	6	33	96	kitchen	sun_ajcbwwvdlsvjyzje.tif	513729.777644	513730.036240	513730.776543	7.758162e-01	86	39	513731.403106	1
106	6	34	82	kitchen	sun_aenotlpyftoioydp.tif	513732.180028	513732.438619	513733.178786	7.591320e-01	72	37	513733.867242	1
106	6	35	102	kitchen	sun_auaiucuqpdausiva.tif	513734.640803	513734.899392	513735.639711	8.008426e-01	92	39	513736.491220	0
106	6	36	72	kitchen	sun_abpwyqmlzafvklqo.tif	513737.268402	513737.526996	513738.267253	7.257636e-01	62	none	NaN	NaN
106	6	37	84	kitchen	sun_aexklacwqwezaorf.tif	513739.036824	513739.295415	513740.035589	7.674741e-01	74	39	513740.755157	1
106	6	38	101	kitchen	sun_aqeaevwwwjoqhzvl.tif	513741.530960	513741.789549	513742.529888	7.674741e-01	91	none	NaN	NaN
106	6	39	110	kitchen	sun_azmutvzbxypaceni.tif	513743.299381	513743.557967	513744.298128	6.590267e-01	100	none	NaN	NaN
106	6	40	83	kitchen	sun_aeqdocilnnpuvuhx.tif	513745.067797	513745.326386	513746.066512	8.008426e-01	73	none	NaN	NaN
106	6	41	77	kitchen	sun_acxkpeoqbwcxfvip.tif	513746.836219	513747.094803	513747.834940	8.258689e-01	67	none	NaN	NaN
106	6	42	63	kitchen	labelme_rykdqxenmhulbdn.tif	513748.604637	513748.863218	513749.603362	6.506846e-01	53	none	NaN	NaN
106	6	43	80	kitchen	sun_aegoxogugdkwpmpj.tif	513750.373053	513750.631639	513751.371799	7.090794e-01	70	none	NaN	NaN
106	6	44	79	kitchen	sun_admlmbcdswaszruo.tif	513752.141468	513752.400064	513753.140268	7.925005e-01	69	37	513753.635262	1
106	6	45	61	kitchen	labelme_brsyyvweiuaazfr.tif	513754.410384	513754.668979	513755.409233	7.007372e-01	51	none	NaN	NaN
106	6	46	97	kitchen	sun_ajkqhtgcbgpcwrwn.tif	513756.178804	513756.437395	513757.177588	7.090794e-01	87	none	NaN	NaN
106	6	47	88	kitchen	sun_agubuxuukhzyzpdp.tif	513757.947222	513758.205813	513758.946109	7.341057e-01	78	none	NaN	NaN
106	6	48	104	kitchen	sun_auticobqsbwgoppi.tif	513759.715642	513759.974228	513760.714437	7.758162e-01	94	none	NaN	NaN
106	6	49	76	kitchen	sun_acwjdupvyjsugpay.tif	513761.484055	513761.742647	513762.482870	7.591320e-01	66	none	NaN	NaN
106	6	50	92	kitchen	sun_ahpczsiumwwocjkv.tif	513763.252478	513763.511066	513764.251342	7.174215e-01	82	none	NaN	NaN
106	6	51	105	kitchen	sun_avszsnwsbuqfgzbn.tif	513765.020894	513765.279487	513766.019807	8.258689e-01	95	none	NaN	NaN
106	6	52	92	kitchen	sun_ahpczsiumwwocjkv.tif	513766.789317	513767.047902	513767.788063	8.342110e-01	82	none	NaN	NaN
106	6	53	83	kitchen	sun_aeqdocilnnpuvuhx.tif	513768.557733	513768.816324	513769.556480	7.341057e-01	73	none	NaN	NaN
106	6	54	94	kitchen	sun_ahywdevtimnqcsln.tif	513770.326149	513770.584743	513771.324913	8.091847e-01	84	none	NaN	NaN
106	6	55	101	kitchen	sun_aqeaevwwwjoqhzvl.tif	513772.094573	513772.353155	513773.093494	7.007372e-01	91	none	NaN	NaN
106	6	56	81	kitchen	sun_aehawpgmrlhlvcow.tif	513773.862992	513774.121580	513774.861795	6.840530e-01	71	none	NaN	NaN
106	6	57	87	kitchen	sun_agorklincwxrdtga.tif	513775.631410	513775.890000	513776.630272	8.091847e-01	77	none	NaN	NaN
106	6	58	89	kitchen	sun_agzzivivdpnawacl.tif	513777.399830	513777.658415	513778.398728	7.257636e-01	79	none	NaN	NaN
106	6	59	74	kitchen	sun_acfmftudsenhrfhy.tif	513779.168248	513779.426833	513780.166972	8.008426e-01	64	none	NaN	NaN
106	6	60	67	kitchen	sun_aarfiyshqohlwkmo.tif	513780.936664	513781.195256	513781.935421	6.923951e-01	57	none	NaN	NaN
106	6	61	63	kitchen	labelme_rykdqxenmhulbdn.tif	513782.705086	513782.963674	513783.703915	6.673688e-01	53	none	NaN	NaN
106	6	62	84	kitchen	sun_aexklacwqwezaorf.tif	513784.473505	513784.732091	513785.472344	6.590267e-01	74	none	NaN	NaN
106	6	63	103	kitchen	sun_aunzlwrbjumxhwdj.tif	513786.241922	513786.500510	513787.240747	6.923951e-01	93	37	513787.859301	1
106	6	64	91	kitchen	sun_ahljzhgcdpomplvg.tif	513788.635959	513788.894546	513789.634879	6.923951e-01	81	none	NaN	NaN
106	6	65	62	kitchen	labelme_kxvouciolcpqplr.tif	513790.404375	513790.662966	513791.403282	7.424478e-01	52	39	513791.979308	1
106	6	66	106	kitchen	sun_awcpdzzznmweyyhv.tif	513792.756705	513793.015298	513793.755426	6.673688e-01	96	none	NaN	NaN
106	6	67	68	kitchen	sun_aaxxjlsuzvqlgylf.tif	513794.525125	513794.783717	513795.523927	7.507899e-01	58	none	NaN	NaN
106	6	68	65	kitchen	sun_aamedkxepzlwuxes.tif	513796.293542	513796.552132	513797.292463	7.341057e-01	55	none	NaN	NaN
106	6	69	96	kitchen	sun_ajcbwwvdlsvjyzje.tif	513798.061960	513798.320552	513799.060877	7.007372e-01	86	none	NaN	NaN
106	6	70	110	kitchen	sun_azmutvzbxypaceni.tif	513799.830381	513800.088974	513800.829106	8.425531e-01	100	none	NaN	NaN
106	6	71	77	kitchen	sun_acxkpeoqbwcxfvip.tif	513801.598800	513801.857393	513802.597684	8.508952e-01	67	39	513803.387031	1
106	6	72	86	kitchen	sun_aggjlwcdjsjcaemh.tif	513804.159671	513804.418262	513805.158568	7.925005e-01	76	none	NaN	NaN
106	6	73	64	kitchen	sun_aadbddgrdsjugojn.tif	513805.928089	513806.186678	513806.926926	6.757109e-01	54	none	NaN	NaN
106	6	74	76	kitchen	sun_acwjdupvyjsugpay.tif	513807.696509	513807.955097	513808.695320	8.175268e-01	66	none	NaN	NaN
106	6	75	104	kitchen	sun_auticobqsbwgoppi.tif	513809.464926	513809.723514	513810.463781	8.508952e-01	94	none	NaN	NaN
106	6	76	95	kitchen	sun_aixorpehvfykdynp.tif	513811.233342	513811.491933	513812.232064	7.507899e-01	85	none	NaN	NaN
106	6	77	109	kitchen	sun_aypmqwcualkenuoe.tif	513813.001760	513813.260353	513814.000581	8.342110e-01	99	none	NaN	NaN
106	6	78	108	kitchen	sun_aymvwlarqodbwuoc.tif	513814.770179	513815.028771	513815.768957	6.757109e-01	98	37	513816.283135	1
106	6	79	100	kitchen	sun_amjjdeyrggfqgmom.tif	513817.055776	513817.314371	513818.054711	7.591320e-01	90	none	NaN	NaN
106	6	80	99	kitchen	sun_akcjzhbbjlbogpdi.tif	513818.824199	513819.082782	513819.823006	6.590267e-01	89	none	NaN	NaN
106	6	81	70	kitchen	sun_abdxkyyxwfskuaqb.tif	513820.592614	513820.851206	513821.591340	7.174215e-01	60	none	NaN	NaN
106	6	82	75	kitchen	sun_acgtpgfybqjmzeyw.tif	513822.361039	513822.619626	513823.359860	6.673688e-01	65	37	513823.906902	1
106	6	83	90	kitchen	sun_ahdycvpopffkzzsu.tif	513824.680001	513824.938590	513825.678743	6.757109e-01	80	none	NaN	NaN
106	6	84	97	kitchen	sun_ajkqhtgcbgpcwrwn.tif	513826.448420	513826.707001	513827.447244	6.840530e-01	87	none	NaN	NaN
106	6	85	88	kitchen	sun_agubuxuukhzyzpdp.tif	513828.216838	513828.475424	513829.215744	6.506846e-01	78	none	NaN	NaN
106	6	86	80	kitchen	sun_aegoxogugdkwpmpj.tif	513829.985252	513830.243845	513830.984076	8.091847e-01	70	none	NaN	NaN
106	6	87	82	kitchen	sun_aenotlpyftoioydp.tif	513831.753674	513832.012261	513832.752585	7.257636e-01	72	none	NaN	NaN
106	6	88	102	kitchen	sun_auaiucuqpdausiva.tif	513833.522092	513833.780681	513834.520995	7.925005e-01	92	39	513835.123077	1
106	6	89	66	kitchen	sun_aapllqyqlykszopd.tif	513835.899444	513836.158035	513836.898360	7.841583e-01	56	none	NaN	NaN
106	6	90	78	kitchen	sun_adgqasybjyktddhj.tif	513837.667868	513837.926453	513838.666590	8.091847e-01	68	none	NaN	NaN
106	6	91	61	kitchen	labelme_brsyyvweiuaazfr.tif	513839.436285	513839.694874	513840.435044	8.175268e-01	51	none	NaN	NaN
106	6	92	79	kitchen	sun_admlmbcdswaszruo.tif	513841.204705	513841.463295	513842.203450	8.425531e-01	69	37	513842.691242	1
106	6	93	73	kitchen	sun_abrcnpqqhmjwekyf.tif	513843.465279	513843.723863	513844.464092	7.674741e-01	63	none	NaN	NaN
106	6	94	69	kitchen	sun_abdenxonkemggwsq.tif	513845.233697	513845.492285	513846.232617	6.757109e-01	59	none	NaN	NaN
106	6	95	98	kitchen	sun_akchetnepxlcxhsu.tif	513847.002111	513847.260700	513848.000930	7.758162e-01	88	none	NaN	NaN
106	6	96	107	kitchen	sun_axyyrmzcupyhlivc.tif	513848.770532	513849.029121	513849.769390	7.841583e-01	97	none	NaN	NaN
106	6	97	71	kitchen	sun_abftihopvusyfakt.tif	513850.538949	513850.797538	513851.537694	7.507899e-01	61	none	NaN	NaN
106	6	98	85	kitchen	sun_afuyedyxivkhecmu.tif	513852.307368	513852.565958	513853.306104	7.341057e-01	75	none	NaN	NaN
106	6	99	93	kitchen	sun_ahspylgoovwmwvgk.tif	513854.075787	513854.334374	513855.074542	7.424478e-01	83	none	NaN	NaN
106	6	100	72	kitchen	sun_abpwyqmlzafvklqo.tif	513855.844204	513856.102795	513856.843015	7.424478e-01	62	none	NaN	NaN
106	7	1	30	bathroom	sun_ajlawzvmubibwbpy.tif	513896.325981	513896.584567	513897.274743	6.673688e-01	20	37	513897.819291	1
106	7	2	24	bathroom	sun_agrwbmhcpmfuwmsg.tif	513898.594887	513898.853479	513899.543741	7.424478e-01	14	none	NaN	NaN
106	7	3	18	bathroom	sun_acgyywnybuveqsro.tif	513900.313261	513900.571846	513901.262147	7.674741e-01	8	none	NaN	NaN
106	7	4	11	bathroom	labelme_sfxiulhjbhlyiyt.tif	513902.031628	513902.290216	513902.980363	7.507899e-01	1	none	NaN	NaN
106	7	5	36	bathroom	sun_ambriybtogmepttm.tif	513903.749997	513904.008588	513904.698692	7.841583e-01	26	none	NaN	NaN
106	7	6	59	bathroom	sun_axyrejkiiaqiurjk.tif	513905.468362	513905.726957	513906.417195	8.008426e-01	49	39	513906.979075	1
106	7	7	41	bathroom	sun_aoybiabnpadelefl.tif	513907.753963	513908.012551	513908.702760	7.007372e-01	31	none	NaN	NaN
106	7	8	27	bathroom	sun_ahcvzmoyaycdoftf.tif	513909.472333	513909.730924	513910.421074	7.341057e-01	17	none	NaN	NaN
106	7	9	33	bathroom	sun_aljolscmmzydegqp.tif	513911.190702	513911.449294	513912.139555	7.424478e-01	23	none	NaN	NaN
106	7	10	19	bathroom	sun_aclfzgynxzxlbepz.tif	513912.909074	513913.167658	513913.857865	6.757109e-01	9	none	NaN	NaN
106	7	11	50	bathroom	sun_aspsyogrekjtfozg.tif	513914.627440	513914.886032	513915.576157	7.507899e-01	40	none	NaN	NaN
106	7	12	25	bathroom	sun_agyqfjcfkdcydepw.tif	513916.345809	513916.604400	513917.294669	6.506846e-01	15	37	513917.883109	1
106	7	13	48	bathroom	sun_aqrpegblszgcoujh.tif	513918.656431	513918.915022	513919.605260	8.008426e-01	38	none	NaN	NaN
106	7	14	52	bathroom	sun_aunuadmjocsddsrl.tif	513920.374801	513920.633392	513921.323479	8.342110e-01	42	none	NaN	NaN
106	7	15	45	bathroom	sun_apkxzenqapsujocq.tif	513922.093170	513922.351756	513923.041949	7.925005e-01	35	none	NaN	NaN
106	7	16	54	bathroom	sun_auzqhkafidnkrwmo.tif	513923.811540	513924.070132	513924.760197	6.840530e-01	44	none	NaN	NaN
106	7	17	43	bathroom	sun_apjevzvycyhuqghb.tif	513925.529907	513925.788495	513926.478699	6.923951e-01	33	37	513927.091255	1
106	7	18	23	bathroom	sun_aghyqhbptboemmoq.tif	513927.865552	513928.124144	513928.814390	7.591320e-01	13	none	NaN	NaN
106	7	19	57	bathroom	sun_axldvoqbuvuggfmq.tif	513929.583922	513929.842513	513930.532738	7.507899e-01	47	none	NaN	NaN
106	7	20	13	bathroom	sun_aavhrsfjbserjtht.tif	513931.302294	513931.560887	513932.251128	8.175268e-01	3	none	NaN	NaN
106	7	21	28	bathroom	sun_ahijqszoswveeyji.tif	513933.020663	513933.279253	513933.969497	7.341057e-01	18	39	513934.555185	1
106	7	22	51	bathroom	sun_atstyziqcmkahyxk.tif	513935.331281	513935.589869	513936.280084	7.257636e-01	41	none	NaN	NaN
106	7	23	55	bathroom	sun_avhrdrntsqrjzccq.tif	513937.049650	513937.308241	513937.998405	7.090794e-01	45	none	NaN	NaN
106	7	24	40	bathroom	sun_aofnryafpsjimzsb.tif	513938.768020	513939.026612	513939.716681	6.923951e-01	30	none	NaN	NaN
106	7	25	44	bathroom	sun_apkruvsevgegsdwp.tif	513940.486390	513940.744979	513941.435091	8.091847e-01	34	none	NaN	NaN
106	7	26	42	bathroom	sun_apeeialkgkuxddgh.tif	513942.204759	513942.463350	513943.153522	8.175268e-01	32	none	NaN	NaN
106	7	27	20	bathroom	sun_afcoljnjfoxjtgja.tif	513943.923128	513944.181723	513944.871966	7.174215e-01	10	none	NaN	NaN
106	7	28	17	bathroom	sun_acegryoqftbzowsg.tif	513945.641500	513945.900092	513946.590166	8.258689e-01	7	none	NaN	NaN
106	7	29	37	bathroom	sun_amzlamotzwfkwjco.tif	513947.359869	513947.618454	513948.308636	6.923951e-01	27	none	NaN	NaN
106	7	30	16	bathroom	sun_acduarbnmmoglmiv.tif	513949.078237	513949.336825	513950.027074	6.840530e-01	6	none	NaN	NaN
106	7	31	34	bathroom	sun_alkosphxlxwjwgjd.tif	513950.796602	513951.055199	513951.745273	8.342110e-01	24	none	NaN	NaN
106	7	32	49	bathroom	sun_asfwthctfqerjvxr.tif	513952.514976	513952.773565	513953.463764	7.674741e-01	39	none	NaN	NaN
106	7	33	31	bathroom	sun_akiytfaagpdsphgz.tif	513954.233345	513954.491933	513955.182118	7.925005e-01	21	none	NaN	NaN
106	7	34	53	bathroom	sun_ausgutylgojavyoq.tif	513955.951711	513956.210304	513956.900371	7.090794e-01	43	39	513957.539178	1
106	7	35	39	bathroom	sun_anryaplzeujmzfkd.tif	513958.312385	513958.570975	513959.261245	8.425531e-01	29	none	NaN	NaN
106	7	36	21	bathroom	sun_aggnnqpdorgxpvce.tif	513960.030753	513960.289343	513960.979573	7.925005e-01	11	39	513961.571259	1
106	7	37	56	bathroom	sun_awnqiikzaispgmwo.tif	513962.349719	513962.608306	513963.298468	7.341057e-01	46	none	NaN	NaN
106	7	38	14	bathroom	sun_abapwbhyhkfixyex.tif	513964.068089	513964.326676	513965.016889	8.175268e-01	4	none	NaN	NaN
106	7	39	60	bathroom	sun_azqyogdvyhahyram.tif	513965.786455	513966.045047	513966.735326	7.591320e-01	50	none	NaN	NaN
106	7	40	38	bathroom	sun_anhioqovhscjqqwb.tif	513967.504821	513967.763415	513968.453563	8.258689e-01	28	none	NaN	NaN
106	7	41	47	bathroom	sun_apynckhmoftszqoq.tif	513969.223196	513969.481783	513970.171854	6.506846e-01	37	none	NaN	NaN
106	7	42	12	bathroom	sun_aapitsgbtktqubfy.tif	513970.941561	513971.200155	513971.890341	8.008426e-01	2	none	NaN	NaN
106	7	43	22	bathroom	sun_agguqiubmwhqqunb.tif	513972.659929	513972.918520	513973.608717	7.424478e-01	12	37	513974.251363	1
106	7	44	46	bathroom	sun_apmqjbnwghzuhhzh.tif	513975.028943	513975.287527	513975.977697	8.342110e-01	36	none	NaN	NaN
106	7	45	58	bathroom	sun_axxbkopsgyouuebh.tif	513976.747316	513977.005903	513977.696004	8.258689e-01	48	none	NaN	NaN
106	7	46	35	bathroom	sun_alotolagknyrgtsk.tif	513978.465681	513978.724269	513979.414343	8.425531e-01	25	none	NaN	NaN
106	7	47	26	bathroom	sun_ahaulkltgpkeeemi.tif	513980.184051	513980.442644	513981.132817	8.091847e-01	16	none	NaN	NaN
106	7	48	29	bathroom	sun_ahqjwnzgolcaoidx.tif	513981.902423	513982.161015	513982.851193	6.673688e-01	19	none	NaN	NaN
106	7	49	32	bathroom	sun_aleqenyvunhactkl.tif	513983.620792	513983.879379	513984.569497	7.591320e-01	22	none	NaN	NaN
106	7	50	15	bathroom	sun_abjtwfukuwddzted.tif	513985.339160	513985.597750	513986.287925	6.590267e-01	5	none	NaN	NaN
106	7	51	16	bathroom	sun_acduarbnmmoglmiv.tif	513987.057530	513987.316118	513988.006224	7.174215e-01	6	none	NaN	NaN
106	7	52	53	bathroom	sun_ausgutylgojavyoq.tif	513988.775894	513989.034487	513989.724693	8.342110e-01	43	none	NaN	NaN
106	7	53	23	bathroom	sun_aghyqhbptboemmoq.tif	513990.494266	513990.752855	513991.443068	7.758162e-01	13	none	NaN	NaN
106	7	54	17	bathroom	sun_acegryoqftbzowsg.tif	513992.212633	513992.471226	513993.161451	6.673688e-01	7	none	NaN	NaN
106	7	55	32	bathroom	sun_aleqenyvunhactkl.tif	513993.931006	513994.189593	513994.879701	8.425531e-01	22	37	513995.499274	1
106	7	56	37	bathroom	sun_amzlamotzwfkwjco.tif	513996.274991	513996.533578	513997.223725	8.091847e-01	27	none	NaN	NaN
106	7	57	59	bathroom	sun_axyrejkiiaqiurjk.tif	513997.993360	513998.251954	513998.942206	7.507899e-01	49	37	513999.563323	0
106	7	58	41	bathroom	sun_aoybiabnpadelefl.tif	514000.337352	514000.595940	514001.286041	7.007372e-01	31	none	NaN	NaN
106	7	59	26	bathroom	sun_ahaulkltgpkeeemi.tif	514002.055718	514002.314304	514003.004571	8.091847e-01	16	none	NaN	NaN
106	7	60	55	bathroom	sun_avhrdrntsqrjzccq.tif	514003.774085	514004.032677	514004.722842	6.757109e-01	45	none	NaN	NaN
106	7	61	40	bathroom	sun_aofnryafpsjimzsb.tif	514005.492460	514005.751043	514006.441119	7.341057e-01	30	none	NaN	NaN
106	7	62	33	bathroom	sun_aljolscmmzydegqp.tif	514007.210828	514007.469414	514008.159656	6.923951e-01	23	none	NaN	NaN
106	7	63	24	bathroom	sun_agrwbmhcpmfuwmsg.tif	514008.929198	514009.187785	514009.878148	7.591320e-01	14	none	NaN	NaN
106	7	64	39	bathroom	sun_anryaplzeujmzfkd.tif	514010.647563	514010.906153	514011.596279	8.508952e-01	29	none	NaN	NaN
106	7	65	38	bathroom	sun_anhioqovhscjqqwb.tif	514012.365930	514012.624523	514013.314590	6.590267e-01	28	none	NaN	NaN
106	7	66	15	bathroom	sun_abjtwfukuwddzted.tif	514014.084301	514014.342894	514015.033040	6.757109e-01	5	none	NaN	NaN
106	7	67	42	bathroom	sun_apeeialkgkuxddgh.tif	514015.802670	514016.061254	514016.751385	7.841583e-01	32	none	NaN	NaN
106	7	68	11	bathroom	labelme_sfxiulhjbhlyiyt.tif	514017.521042	514017.779631	514018.469766	8.508952e-01	1	none	NaN	NaN
106	7	69	12	bathroom	sun_aapitsgbtktqubfy.tif	514019.239411	514019.498001	514020.188129	6.840530e-01	2	none	NaN	NaN
106	7	70	43	bathroom	sun_apjevzvycyhuqghb.tif	514020.957782	514021.216373	514021.906515	7.257636e-01	33	none	NaN	NaN
106	7	71	47	bathroom	sun_apynckhmoftszqoq.tif	514022.676148	514022.934738	514023.624823	8.008426e-01	37	37	514024.131032	1
106	7	72	34	bathroom	sun_alkosphxlxwjwgjd.tif	514024.903356	514025.161942	514025.852169	7.591320e-01	24	none	NaN	NaN
106	7	73	30	bathroom	sun_ajlawzvmubibwbpy.tif	514026.621725	514026.880315	514027.570513	7.174215e-01	20	none	NaN	NaN
106	7	74	56	bathroom	sun_awnqiikzaispgmwo.tif	514028.340089	514028.598681	514029.288771	6.590267e-01	46	none	NaN	NaN
106	7	75	36	bathroom	sun_ambriybtogmepttm.tif	514030.058459	514030.317053	514031.007334	8.175268e-01	26	none	NaN	NaN
106	7	76	46	bathroom	sun_apmqjbnwghzuhhzh.tif	514031.776832	514032.035418	514032.725681	6.673688e-01	36	none	NaN	NaN
106	7	77	14	bathroom	sun_abapwbhyhkfixyex.tif	514033.495200	514033.753793	514034.443979	7.758162e-01	4	none	NaN	NaN
106	7	78	19	bathroom	sun_aclfzgynxzxlbepz.tif	514035.213568	514035.472156	514036.162282	6.923951e-01	9	none	NaN	NaN
106	7	79	25	bathroom	sun_agyqfjcfkdcydepw.tif	514036.931934	514037.190530	514037.880715	7.007372e-01	15	none	NaN	NaN
106	7	80	13	bathroom	sun_aavhrsfjbserjtht.tif	514038.650308	514038.908894	514039.598999	7.257636e-01	3	none	NaN	NaN
106	7	81	60	bathroom	sun_azqyogdvyhahyram.tif	514040.368678	514040.627263	514041.317609	7.424478e-01	50	none	NaN	NaN
106	7	82	50	bathroom	sun_aspsyogrekjtfozg.tif	514042.087044	514042.345637	514043.035877	6.506846e-01	40	39	514043.579096	1
106	7	83	22	bathroom	sun_agguqiubmwhqqunb.tif	514044.355961	514044.614547	514045.304642	6.590267e-01	12	none	NaN	NaN
106	7	84	20	bathroom	sun_afcoljnjfoxjtgja.tif	514046.074326	514046.332914	514047.023073	8.258689e-01	10	none	NaN	NaN
106	7	85	18	bathroom	sun_acgyywnybuveqsro.tif	514047.792700	514048.051287	514048.741356	6.757109e-01	8	none	NaN	NaN
106	7	86	58	bathroom	sun_axxbkopsgyouuebh.tif	514049.511064	514049.769658	514050.459857	7.758162e-01	48	none	NaN	NaN
106	7	87	35	bathroom	sun_alotolagknyrgtsk.tif	514051.229438	514051.488025	514052.178129	7.257636e-01	25	none	NaN	NaN
106	7	88	44	bathroom	sun_apkruvsevgegsdwp.tif	514052.947805	514053.206392	514053.896670	7.007372e-01	34	none	NaN	NaN
106	7	89	48	bathroom	sun_aqrpegblszgcoujh.tif	514054.666172	514054.924764	514055.614908	7.841583e-01	38	none	NaN	NaN
106	7	90	45	bathroom	sun_apkxzenqapsujocq.tif	514056.384544	514056.643129	514057.333396	7.841583e-01	35	none	NaN	NaN
106	7	91	57	bathroom	sun_axldvoqbuvuggfmq.tif	514058.102911	514058.361500	514059.051658	7.090794e-01	47	37	514059.699151	0
106	7	92	51	bathroom	sun_atstyziqcmkahyxk.tif	514060.471923	514060.730511	514061.420660	7.174215e-01	41	none	NaN	NaN
106	7	93	31	bathroom	sun_akiytfaagpdsphgz.tif	514062.190294	514062.448885	514063.138991	7.925005e-01	21	none	NaN	NaN
106	7	94	29	bathroom	sun_ahqjwnzgolcaoidx.tif	514063.908663	514064.167249	514064.857477	8.258689e-01	19	none	NaN	NaN
106	7	95	54	bathroom	sun_auzqhkafidnkrwmo.tif	514065.627030	514065.885617	514066.575773	8.425531e-01	44	37	514067.091313	1
106	7	96	49	bathroom	sun_asfwthctfqerjvxr.tif	514067.862581	514068.121174	514068.811371	7.758162e-01	39	none	NaN	NaN
106	7	97	52	bathroom	sun_aunuadmjocsddsrl.tif	514069.580948	514069.839537	514070.529711	7.674741e-01	42	none	NaN	NaN
106	7	98	28	bathroom	sun_ahijqszoswveeyji.tif	514071.299320	514071.557904	514072.248156	6.840530e-01	18	none	NaN	NaN
106	7	99	21	bathroom	sun_aggnnqpdorgxpvce.tif	514073.017690	514073.276278	514073.966455	7.090794e-01	11	37	514074.579052	1
106	7	100	27	bathroom	sun_ahcvzmoyaycdoftf.tif	514075.353333	514075.611925	514076.302191	7.674741e-01	17	none	NaN	NaN
106	8	1	66	kitchen	sun_aapllqyqlykszopd.tif	514107.385065	514107.643655	514108.325442	6.757109e-01	56	none	NaN	NaN
106	8	2	91	kitchen	sun_ahljzhgcdpomplvg.tif	514109.095091	514109.353687	514110.035500	7.591320e-01	81	37	514110.499240	1
106	8	3	104	kitchen	sun_auticobqsbwgoppi.tif	514111.272250	514111.530837	514112.212689	8.508952e-01	94	none	NaN	NaN
106	8	4	109	kitchen	sun_aypmqwcualkenuoe.tif	514112.982280	514113.240872	514113.922782	7.758162e-01	99	none	NaN	NaN
106	8	5	81	kitchen	sun_aehawpgmrlhlvcow.tif	514114.692309	514114.950894	514115.632684	7.090794e-01	71	37	514116.059036	1
106	8	6	101	kitchen	sun_aqeaevwwwjoqhzvl.tif	514116.836096	514117.094685	514117.776592	7.257636e-01	91	none	NaN	NaN
106	8	7	85	kitchen	sun_afuyedyxivkhecmu.tif	514118.546123	514118.804711	514119.486460	8.258689e-01	75	none	NaN	NaN
106	8	8	83	kitchen	sun_aeqdocilnnpuvuhx.tif	514120.256150	514120.514740	514121.196512	6.923951e-01	73	none	NaN	NaN
106	8	9	80	kitchen	sun_aegoxogugdkwpmpj.tif	514121.966177	514122.224769	514122.906572	8.091847e-01	70	none	NaN	NaN
106	8	10	86	kitchen	sun_aggjlwcdjsjcaemh.tif	514123.676205	514123.934792	514124.616588	6.673688e-01	76	39	514125.171121	1
106	8	11	65	kitchen	sun_aamedkxepzlwuxes.tif	514125.945118	514126.203711	514126.885490	7.007372e-01	55	none	NaN	NaN
106	8	12	98	kitchen	sun_akchetnepxlcxhsu.tif	514127.655148	514127.913740	514128.595558	7.007372e-01	88	none	NaN	NaN
106	8	13	77	kitchen	sun_acxkpeoqbwcxfvip.tif	514129.365171	514129.623764	514130.305624	8.008426e-01	67	none	NaN	NaN
106	8	14	96	kitchen	sun_ajcbwwvdlsvjyzje.tif	514131.075200	514131.333792	514132.015688	8.258689e-01	86	none	NaN	NaN
106	8	15	84	kitchen	sun_aexklacwqwezaorf.tif	514132.785230	514133.043822	514133.725676	7.257636e-01	74	39	514134.267231	1
106	8	16	79	kitchen	sun_admlmbcdswaszruo.tif	514135.037458	514135.296049	514135.977955	7.507899e-01	69	none	NaN	NaN
106	8	17	89	kitchen	sun_agzzivivdpnawacl.tif	514136.747492	514137.006072	514137.687894	8.425531e-01	79	37	514138.203272	1
106	8	18	92	kitchen	sun_ahpczsiumwwocjkv.tif	514138.974697	514139.233279	514139.915077	8.425531e-01	82	none	NaN	NaN
106	8	19	93	kitchen	sun_ahspylgoovwmwvgk.tif	514140.684723	514140.943312	514141.625258	7.758162e-01	83	39	514142.235121	1
106	8	20	87	kitchen	sun_agorklincwxrdtga.tif	514143.012031	514143.270618	514143.952373	7.841583e-01	77	37	514144.522945	1
106	8	21	68	kitchen	sun_aaxxjlsuzvqlgylf.tif	514145.297624	514145.556218	514146.238018	6.840530e-01	58	none	NaN	NaN
106	8	22	76	kitchen	sun_acwjdupvyjsugpay.tif	514147.007650	514147.266241	514147.948136	6.590267e-01	66	none	NaN	NaN
106	8	23	67	kitchen	sun_aarfiyshqohlwkmo.tif	514148.717679	514148.976270	514149.658117	6.590267e-01	57	none	NaN	NaN
106	8	24	97	kitchen	sun_ajkqhtgcbgpcwrwn.tif	514150.427710	514150.686296	514151.368076	7.507899e-01	87	none	NaN	NaN
106	8	25	110	kitchen	sun_azmutvzbxypaceni.tif	514152.137736	514152.396324	514153.078074	7.174215e-01	100	none	NaN	NaN
106	8	26	105	kitchen	sun_avszsnwsbuqfgzbn.tif	514153.847759	514154.106353	514154.788249	7.841583e-01	95	none	NaN	NaN
106	8	27	70	kitchen	sun_abdxkyyxwfskuaqb.tif	514155.557794	514155.816374	514156.498135	8.508952e-01	60	none	NaN	NaN
106	8	28	69	kitchen	sun_abdenxonkemggwsq.tif	514157.267814	514157.526404	514158.208287	7.507899e-01	59	none	NaN	NaN
106	8	29	64	kitchen	sun_aadbddgrdsjugojn.tif	514158.977848	514159.236434	514159.918199	8.425531e-01	54	none	NaN	NaN
106	8	30	72	kitchen	sun_abpwyqmlzafvklqo.tif	514160.687869	514160.946461	514161.628275	7.674741e-01	62	none	NaN	NaN
106	8	31	71	kitchen	sun_abftihopvusyfakt.tif	514162.397900	514162.656487	514163.338428	7.591320e-01	61	none	NaN	NaN
106	8	32	108	kitchen	sun_aymvwlarqodbwuoc.tif	514164.107925	514164.366511	514165.048456	8.342110e-01	98	none	NaN	NaN
106	8	33	102	kitchen	sun_auaiucuqpdausiva.tif	514165.817958	514166.076548	514166.758480	7.341057e-01	92	none	NaN	NaN
106	8	34	75	kitchen	sun_acgtpgfybqjmzeyw.tif	514167.527977	514167.786570	514168.468482	7.925005e-01	65	none	NaN	NaN
106	8	35	100	kitchen	sun_amjjdeyrggfqgmom.tif	514169.238010	514169.496598	514170.178435	8.258689e-01	90	none	NaN	NaN
106	8	36	74	kitchen	sun_acfmftudsenhrfhy.tif	514170.948038	514171.206630	514171.888423	7.674741e-01	64	none	NaN	NaN
106	8	37	73	kitchen	sun_abrcnpqqhmjwekyf.tif	514172.658063	514172.916659	514173.598545	8.008426e-01	63	none	NaN	NaN
106	8	38	94	kitchen	sun_ahywdevtimnqcsln.tif	514174.368093	514174.626683	514175.308465	8.175268e-01	84	none	NaN	NaN
106	8	39	106	kitchen	sun_awcpdzzznmweyyhv.tif	514176.078118	514176.336705	514177.018499	6.923951e-01	96	none	NaN	NaN
106	8	40	103	kitchen	sun_aunzlwrbjumxhwdj.tif	514177.788146	514178.046739	514178.728681	7.174215e-01	93	none	NaN	NaN
106	8	41	99	kitchen	sun_akcjzhbbjlbogpdi.tif	514179.498172	514179.756765	514180.438615	7.424478e-01	89	none	NaN	NaN
106	8	42	63	kitchen	labelme_rykdqxenmhulbdn.tif	514181.208203	514181.466791	514182.148546	8.258689e-01	53	none	NaN	NaN
106	8	43	61	kitchen	labelme_brsyyvweiuaazfr.tif	514182.918229	514183.176819	514183.858664	7.507899e-01	51	none	NaN	NaN
106	8	44	88	kitchen	sun_agubuxuukhzyzpdp.tif	514184.628256	514184.886840	514185.568732	7.591320e-01	78	none	NaN	NaN
106	8	45	95	kitchen	sun_aixorpehvfykdynp.tif	514186.338281	514186.596869	514187.278631	7.090794e-01	85	none	NaN	NaN
106	8	46	62	kitchen	labelme_kxvouciolcpqplr.tif	514188.048312	514188.306899	514188.988785	7.841583e-01	52	none	NaN	NaN
106	8	47	78	kitchen	sun_adgqasybjyktddhj.tif	514189.758339	514190.016927	514190.698814	8.425531e-01	68	none	NaN	NaN
106	8	48	82	kitchen	sun_aenotlpyftoioydp.tif	514191.468366	514191.726957	514192.408691	6.757109e-01	72	37	514192.970949	1
106	8	49	90	kitchen	sun_ahdycvpopffkzzsu.tif	514193.745620	514194.004233	514194.685971	7.424478e-01	80	none	NaN	NaN
106	8	50	107	kitchen	sun_axyyrmzcupyhlivc.tif	514195.455650	514195.714236	514196.396043	6.840530e-01	97	none	NaN	NaN
106	8	51	109	kitchen	sun_aypmqwcualkenuoe.tif	514197.165676	514197.424266	514198.106121	7.758162e-01	99	none	NaN	NaN
106	8	52	75	kitchen	sun_acgtpgfybqjmzeyw.tif	514198.875703	514199.134291	514199.816163	7.174215e-01	65	none	NaN	NaN
106	8	53	76	kitchen	sun_acwjdupvyjsugpay.tif	514200.585733	514200.844317	514201.526054	6.757109e-01	66	none	NaN	NaN
106	8	54	66	kitchen	sun_aapllqyqlykszopd.tif	514202.295757	514202.554349	514203.236154	6.506846e-01	56	none	NaN	NaN
106	8	55	107	kitchen	sun_axyyrmzcupyhlivc.tif	514204.005786	514204.264373	514204.946255	7.007372e-01	97	37	514205.443001	1
106	8	56	64	kitchen	sun_aadbddgrdsjugojn.tif	514206.216310	514206.474901	514207.156694	8.258689e-01	54	37	514207.667042	1
106	8	57	101	kitchen	sun_aqeaevwwwjoqhzvl.tif	514208.443511	514208.702108	514209.383964	6.923951e-01	91	none	NaN	NaN
106	8	58	79	kitchen	sun_admlmbcdswaszruo.tif	514210.153543	514210.412132	514211.093902	7.257636e-01	69	none	NaN	NaN
106	8	59	61	kitchen	labelme_brsyyvweiuaazfr.tif	514211.863574	514212.122158	514212.803895	7.591320e-01	51	none	NaN	NaN
106	8	60	92	kitchen	sun_ahpczsiumwwocjkv.tif	514213.573595	514213.832189	514214.513959	7.591320e-01	82	none	NaN	NaN
106	8	61	63	kitchen	labelme_rykdqxenmhulbdn.tif	514215.283627	514215.542214	514216.223990	7.341057e-01	53	none	NaN	NaN
106	8	62	93	kitchen	sun_ahspylgoovwmwvgk.tif	514216.993652	514217.252244	514217.934173	7.257636e-01	83	none	NaN	NaN
106	8	63	106	kitchen	sun_awcpdzzznmweyyhv.tif	514218.703684	514218.962272	514219.644054	6.923951e-01	96	none	NaN	NaN
106	8	64	83	kitchen	sun_aeqdocilnnpuvuhx.tif	514220.413706	514220.672297	514221.354230	6.840530e-01	73	none	NaN	NaN
106	8	65	70	kitchen	sun_abdxkyyxwfskuaqb.tif	514222.123736	514222.382327	514223.064215	7.007372e-01	60	none	NaN	NaN
106	8	66	84	kitchen	sun_aexklacwqwezaorf.tif	514223.833759	514224.092350	514224.774262	7.758162e-01	74	none	NaN	NaN
106	8	67	78	kitchen	sun_adgqasybjyktddhj.tif	514225.543784	514225.802382	514226.484250	7.925005e-01	68	none	NaN	NaN
106	8	68	77	kitchen	sun_acxkpeoqbwcxfvip.tif	514227.253819	514227.512405	514228.194168	7.841583e-01	67	none	NaN	NaN
106	8	69	74	kitchen	sun_acfmftudsenhrfhy.tif	514228.963847	514229.222433	514229.904268	8.091847e-01	64	none	NaN	NaN
106	8	70	94	kitchen	sun_ahywdevtimnqcsln.tif	514230.673871	514230.932465	514231.614221	7.090794e-01	84	39	514232.179085	1
106	8	71	95	kitchen	sun_aixorpehvfykdynp.tif	514232.951130	514233.209715	514233.891465	6.673688e-01	85	39	514234.611102	1
106	8	72	73	kitchen	sun_abrcnpqqhmjwekyf.tif	514235.386876	514235.645463	514236.327286	8.008426e-01	63	37	514237.187091	1
106	8	73	88	kitchen	sun_agubuxuukhzyzpdp.tif	514237.964430	514238.223014	514238.904882	8.175268e-01	78	none	NaN	NaN
106	8	74	98	kitchen	sun_akchetnepxlcxhsu.tif	514239.674454	514239.933047	514240.614904	8.008426e-01	88	none	NaN	NaN
106	8	75	80	kitchen	sun_aegoxogugdkwpmpj.tif	514241.384480	514241.643073	514242.324941	6.673688e-01	70	39	514242.883017	1
106	8	76	65	kitchen	sun_aamedkxepzlwuxes.tif	514243.653401	514243.911985	514244.593891	7.674741e-01	55	none	NaN	NaN
106	8	77	103	kitchen	sun_aunzlwrbjumxhwdj.tif	514245.363426	514245.622013	514246.303749	7.424478e-01	93	none	NaN	NaN
106	8	78	86	kitchen	sun_aggjlwcdjsjcaemh.tif	514247.073452	514247.332044	514248.013823	8.091847e-01	76	none	NaN	NaN
106	8	79	71	kitchen	sun_abftihopvusyfakt.tif	514248.783477	514249.042069	514249.724004	7.424478e-01	61	none	NaN	NaN
106	8	80	81	kitchen	sun_aehawpgmrlhlvcow.tif	514250.493511	514250.752099	514251.433996	8.342110e-01	71	none	NaN	NaN
106	8	81	96	kitchen	sun_ajcbwwvdlsvjyzje.tif	514252.203533	514252.462127	514253.143865	6.590267e-01	86	none	NaN	NaN
106	8	82	102	kitchen	sun_auaiucuqpdausiva.tif	514253.913561	514254.172156	514254.854024	6.923951e-01	92	none	NaN	NaN
106	8	83	62	kitchen	labelme_kxvouciolcpqplr.tif	514255.623586	514255.882178	514256.563987	7.341057e-01	52	none	NaN	NaN
106	8	84	108	kitchen	sun_aymvwlarqodbwuoc.tif	514257.333617	514257.592208	514258.273990	6.590267e-01	98	none	NaN	NaN
106	8	85	72	kitchen	sun_abpwyqmlzafvklqo.tif	514259.043645	514259.302236	514259.984088	8.175268e-01	62	none	NaN	NaN
106	8	86	87	kitchen	sun_agorklincwxrdtga.tif	514260.753669	514261.012265	514261.694205	7.341057e-01	77	none	NaN	NaN
106	8	87	90	kitchen	sun_ahdycvpopffkzzsu.tif	514262.463699	514262.722290	514263.404120	7.925005e-01	80	none	NaN	NaN
106	8	88	82	kitchen	sun_aenotlpyftoioydp.tif	514264.173729	514264.432316	514265.114050	6.840530e-01	72	none	NaN	NaN
106	8	89	100	kitchen	sun_amjjdeyrggfqgmom.tif	514265.883754	514266.142339	514266.824187	7.174215e-01	90	39	514267.355132	1
106	8	90	67	kitchen	sun_aarfiyshqohlwkmo.tif	514268.127641	514268.386234	514269.068044	7.090794e-01	57	none	NaN	NaN
106	8	91	104	kitchen	sun_auticobqsbwgoppi.tif	514269.837668	514270.096259	514270.778063	8.091847e-01	94	none	NaN	NaN
106	8	92	110	kitchen	sun_azmutvzbxypaceni.tif	514271.547700	514271.806286	514272.488026	7.674741e-01	100	none	NaN	NaN
106	8	93	105	kitchen	sun_avszsnwsbuqfgzbn.tif	514273.257726	514273.516319	514274.198155	8.175268e-01	95	none	NaN	NaN
106	8	94	97	kitchen	sun_ajkqhtgcbgpcwrwn.tif	514274.967756	514275.226341	514275.908176	8.342110e-01	87	none	NaN	NaN
106	8	95	85	kitchen	sun_afuyedyxivkhecmu.tif	514276.677781	514276.936371	514277.618156	8.342110e-01	75	none	NaN	NaN
106	8	96	89	kitchen	sun_agzzivivdpnawacl.tif	514278.387812	514278.646398	514279.328159	7.925005e-01	79	none	NaN	NaN
106	8	97	91	kitchen	sun_ahljzhgcdpomplvg.tif	514280.097836	514280.356429	514281.038370	6.673688e-01	81	none	NaN	NaN
106	8	98	99	kitchen	sun_akcjzhbbjlbogpdi.tif	514281.807864	514282.066453	514282.748316	6.506846e-01	89	none	NaN	NaN
106	8	99	68	kitchen	sun_aaxxjlsuzvqlgylf.tif	514283.517885	514283.776482	514284.458317	6.757109e-01	58	none	NaN	NaN
106	8	100	69	kitchen	sun_abdenxonkemggwsq.tif	514285.227920	514285.486507	514286.168439	6.506846e-01	59	none	NaN	NaN
106	9	1	11	bathroom	labelme_sfxiulhjbhlyiyt.tif	514339.990502	514340.249094	514340.897462	7.758162e-01	1	none	NaN	NaN
106	9	2	24	bathroom	sun_agrwbmhcpmfuwmsg.tif	514341.667163	514341.925754	514342.574279	8.508952e-01	14	none	NaN	NaN
106	9	3	60	bathroom	sun_azqyogdvyhahyram.tif	514343.343827	514343.602412	514344.250982	7.007372e-01	50	none	NaN	NaN
106	9	4	19	bathroom	sun_aclfzgynxzxlbepz.tif	514345.020484	514345.279075	514345.927561	7.925005e-01	9	none	NaN	NaN
106	9	5	14	bathroom	sun_abapwbhyhkfixyex.tif	514346.697145	514346.955736	514347.604244	8.175268e-01	4	none	NaN	NaN
106	9	6	15	bathroom	sun_abjtwfukuwddzted.tif	514348.373808	514348.632398	514349.280896	6.923951e-01	5	39	514349.811178	1
106	9	7	21	bathroom	sun_aggnnqpdorgxpvce.tif	514350.584332	514350.842918	514351.491460	7.507899e-01	11	none	NaN	NaN
106	9	8	38	bathroom	sun_anhioqovhscjqqwb.tif	514352.260992	514352.519578	514353.167997	6.506846e-01	28	none	NaN	NaN
106	9	9	44	bathroom	sun_apkruvsevgegsdwp.tif	514353.937650	514354.196242	514354.844647	6.590267e-01	34	none	NaN	NaN
106	9	10	56	bathroom	sun_awnqiikzaispgmwo.tif	514355.614315	514355.872902	514356.521297	6.590267e-01	46	none	NaN	NaN
106	9	11	16	bathroom	sun_acduarbnmmoglmiv.tif	514357.290977	514357.549566	514358.198104	8.258689e-01	6	none	NaN	NaN
106	9	12	45	bathroom	sun_apkxzenqapsujocq.tif	514358.967635	514359.226227	514359.874598	8.008426e-01	35	none	NaN	NaN
106	9	13	18	bathroom	sun_acgyywnybuveqsro.tif	514360.644301	514360.902889	514361.551334	8.425531e-01	8	none	NaN	NaN
106	9	14	20	bathroom	sun_afcoljnjfoxjtgja.tif	514362.320960	514362.579543	514363.227967	7.758162e-01	10	37	514363.690926	1
106	9	15	49	bathroom	sun_asfwthctfqerjvxr.tif	514364.464744	514364.723343	514365.371917	8.091847e-01	39	none	NaN	NaN
106	9	16	31	bathroom	sun_akiytfaagpdsphgz.tif	514366.141411	514366.399998	514367.048463	7.591320e-01	21	none	NaN	NaN
106	9	17	17	bathroom	sun_acegryoqftbzowsg.tif	514367.818074	514368.076665	514368.725142	7.424478e-01	7	none	NaN	NaN
106	9	18	54	bathroom	sun_auzqhkafidnkrwmo.tif	514369.494736	514369.753323	514370.401723	8.508952e-01	44	none	NaN	NaN
106	9	19	50	bathroom	sun_aspsyogrekjtfozg.tif	514371.171392	514371.429982	514372.078413	8.175268e-01	40	none	NaN	NaN
106	9	20	34	bathroom	sun_alkosphxlxwjwgjd.tif	514372.848052	514373.106645	514373.755058	7.341057e-01	24	37	514374.250923	1
106	9	21	53	bathroom	sun_ausgutylgojavyoq.tif	514375.025207	514375.283797	514375.932316	6.840530e-01	43	none	NaN	NaN
106	9	22	13	bathroom	sun_aavhrsfjbserjtht.tif	514376.701873	514376.960463	514377.608937	6.673688e-01	3	none	NaN	NaN
106	9	23	52	bathroom	sun_aunuadmjocsddsrl.tif	514378.378530	514378.637124	514379.285649	6.506846e-01	42	none	NaN	NaN
106	9	24	12	bathroom	sun_aapitsgbtktqubfy.tif	514380.055193	514380.313782	514380.962193	7.591320e-01	2	none	NaN	NaN
106	9	25	39	bathroom	sun_anryaplzeujmzfkd.tif	514381.731859	514381.990442	514382.638807	7.341057e-01	29	none	NaN	NaN
106	9	26	29	bathroom	sun_ahqjwnzgolcaoidx.tif	514383.408516	514383.667103	514384.315526	7.090794e-01	19	none	NaN	NaN
106	9	27	26	bathroom	sun_ahaulkltgpkeeemi.tif	514385.085174	514385.343760	514385.992171	6.673688e-01	16	37	514386.379202	1
106	9	28	51	bathroom	sun_atstyziqcmkahyxk.tif	514387.153895	514387.412482	514388.060890	7.090794e-01	41	none	NaN	NaN
106	9	29	41	bathroom	sun_aoybiabnpadelefl.tif	514388.830553	514389.089147	514389.737700	7.841583e-01	31	none	NaN	NaN
106	9	30	28	bathroom	sun_ahijqszoswveeyji.tif	514390.507218	514390.765803	514391.414298	7.424478e-01	18	none	NaN	NaN
106	9	31	57	bathroom	sun_axldvoqbuvuggfmq.tif	514392.183877	514392.442466	514393.090923	7.925005e-01	47	none	NaN	NaN
106	9	32	32	bathroom	sun_aleqenyvunhactkl.tif	514393.860536	514394.119124	514394.767561	6.923951e-01	22	39	514395.339046	1
106	9	33	25	bathroom	sun_agyqfjcfkdcydepw.tif	514396.112768	514396.371358	514397.019747	8.008426e-01	15	none	NaN	NaN
106	9	34	30	bathroom	sun_ajlawzvmubibwbpy.tif	514397.789429	514398.048015	514398.696420	8.258689e-01	20	none	NaN	NaN
106	9	35	58	bathroom	sun_axxbkopsgyouuebh.tif	514399.466088	514399.724682	514400.373044	7.507899e-01	48	none	NaN	NaN
106	9	36	48	bathroom	sun_aqrpegblszgcoujh.tif	514401.142755	514401.401342	514402.049805	7.674741e-01	38	none	NaN	NaN
106	9	37	36	bathroom	sun_ambriybtogmepttm.tif	514402.819410	514403.078005	514403.726436	8.258689e-01	26	none	NaN	NaN
106	9	38	33	bathroom	sun_aljolscmmzydegqp.tif	514404.496074	514404.754663	514405.403199	7.674741e-01	23	none	NaN	NaN
106	9	39	42	bathroom	sun_apeeialkgkuxddgh.tif	514406.172734	514406.431322	514407.079792	7.841583e-01	32	none	NaN	NaN
106	9	40	55	bathroom	sun_avhrdrntsqrjzccq.tif	514407.849395	514408.107988	514408.756357	6.757109e-01	45	37	514409.299049	1
106	9	41	46	bathroom	sun_apmqjbnwghzuhhzh.tif	514410.076601	514410.335190	514410.983564	6.840530e-01	36	none	NaN	NaN
106	9	42	22	bathroom	sun_agguqiubmwhqqunb.tif	514411.753263	514412.011858	514412.660307	6.590267e-01	12	none	NaN	NaN
106	9	43	27	bathroom	sun_ahcvzmoyaycdoftf.tif	514413.429926	514413.688514	514414.336995	6.757109e-01	17	none	NaN	NaN
106	9	44	47	bathroom	sun_apynckhmoftszqoq.tif	514415.106601	514415.365173	514416.013720	6.840530e-01	37	none	NaN	NaN
106	9	45	59	bathroom	sun_axyrejkiiaqiurjk.tif	514416.783247	514417.041832	514417.690301	7.424478e-01	49	none	NaN	NaN
106	9	46	35	bathroom	sun_alotolagknyrgtsk.tif	514418.459905	514418.718499	514419.367022	6.673688e-01	25	37	514419.787081	1
106	9	47	40	bathroom	sun_aofnryafpsjimzsb.tif	514420.561987	514420.820579	514421.469143	7.090794e-01	30	37	514422.171212	0
106	9	48	23	bathroom	sun_aghyqhbptboemmoq.tif	514422.947682	514423.206277	514423.854805	7.841583e-01	13	none	NaN	NaN
106	9	49	43	bathroom	sun_apjevzvycyhuqghb.tif	514424.624345	514424.882939	514425.531374	6.673688e-01	33	none	NaN	NaN
106	9	50	37	bathroom	sun_amzlamotzwfkwjco.tif	514426.301010	514426.559597	514427.208310	8.091847e-01	27	none	NaN	NaN
