subject	block	trial	texture	category	image	trialOnset	itiOnset	trialEnd	iti	EEGtrigger	responseKey	responseTime	accuracy
104	1	1	13	bathroom	sun_aavhrsfjbserjtht.tif	1120380.610520	1120380.869107	1120381.609318	7.505901e-01	3	none	NaN	NaN
104	1	2	49	bathroom	sun_asfwthctfqerjvxr.tif	1120382.378935	1120382.637524	1120383.377535	8.423289e-01	39	none	NaN	NaN
104	1	3	25	bathroom	sun_agyqfjcfkdcydepw.tif	1120384.147350	1120384.405941	1120385.145954	6.588513e-01	15	37	1120386.047955	0
104	1	4	38	bathroom	sun_anhioqovhscjqqwb.tif	1120386.825001	1120387.083588	1120387.823651	7.839497e-01	28	none	NaN	NaN
104	1	5	37	bathroom	sun_amzlamotzwfkwjco.tif	1120388.593417	1120388.852007	1120389.592120	7.172305e-01	27	none	NaN	NaN
104	1	6	16	bathroom	sun_acduarbnmmoglmiv.tif	1120390.361841	1120390.620428	1120391.360568	6.922109e-01	6	none	NaN	NaN
104	1	7	41	bathroom	sun_aoybiabnpadelefl.tif	1120392.130255	1120392.388842	1120393.128964	6.922109e-01	31	39	1120394.615899	1
104	1	8	55	bathroom	sun_avhrdrntsqrjzccq.tif	1120395.391817	1120395.650404	1120396.390454	6.922109e-01	45	none	NaN	NaN
104	1	9	60	bathroom	sun_azqyogdvyhahyram.tif	1120397.151894	1120397.410483	1120398.150491	7.422502e-01	50	37	1120400.055829	1
104	1	10	29	bathroom	sun_ahqjwnzgolcaoidx.tif	1120400.830539	1120401.089125	1120401.829122	7.339103e-01	19	none	NaN	NaN
104	1	11	15	bathroom	sun_abjtwfukuwddzted.tif	1120402.590616	1120402.849204	1120403.589165	8.339890e-01	5	37	1120404.903889	1
104	1	12	39	bathroom	sun_anryaplzeujmzfkd.tif	1120405.677030	1120405.935592	1120406.675577	6.755311e-01	29	none	NaN	NaN
104	1	13	17	bathroom	sun_acegryoqftbzowsg.tif	1120407.437077	1120407.695663	1120408.435750	8.089693e-01	7	none	NaN	NaN
104	1	14	30	bathroom	sun_ajlawzvmubibwbpy.tif	1120409.205494	1120409.464090	1120410.204012	8.173092e-01	20	none	NaN	NaN
104	1	15	23	bathroom	sun_aghyqhbptboemmoq.tif	1120410.965569	1120411.224161	1120411.964380	7.839497e-01	13	none	NaN	NaN
104	1	16	53	bathroom	sun_ausgutylgojavyoq.tif	1120412.733989	1120412.992580	1120413.732685	7.505901e-01	43	none	NaN	NaN
104	1	17	59	bathroom	sun_axyrejkiiaqiurjk.tif	1120414.502408	1120414.760997	1120415.500921	7.422502e-01	49	none	NaN	NaN
104	1	18	58	bathroom	sun_axxbkopsgyouuebh.tif	1120416.262486	1120416.521075	1120417.261035	7.339103e-01	48	none	NaN	NaN
104	1	19	14	bathroom	sun_abapwbhyhkfixyex.tif	1120418.022560	1120418.281150	1120419.021148	7.088906e-01	4	none	NaN	NaN
104	1	20	33	bathroom	sun_aljolscmmzydegqp.tif	1120419.782635	1120420.041226	1120420.781295	6.922109e-01	23	none	NaN	NaN
104	1	21	46	bathroom	sun_apmqjbnwghzuhhzh.tif	1120421.551055	1120421.809641	1120422.549676	7.339103e-01	36	37	1120425.167939	0
104	1	22	18	bathroom	sun_acgyywnybuveqsro.tif	1120425.938730	1120426.197320	1120426.937376	6.755311e-01	8	none	NaN	NaN
104	1	23	19	bathroom	sun_aclfzgynxzxlbepz.tif	1120427.707150	1120427.965733	1120428.705858	7.756098e-01	9	none	NaN	NaN
104	1	24	11	bathroom	labelme_sfxiulhjbhlyiyt.tif	1120429.475566	1120429.734155	1120430.474164	6.671912e-01	1	37	1120432.199844	0
104	1	25	27	bathroom	sun_ahcvzmoyaycdoftf.tif	1120432.970691	1120433.229283	1120433.969290	8.256491e-01	17	none	NaN	NaN
104	1	26	21	bathroom	sun_aggnnqpdorgxpvce.tif	1120434.730772	1120434.989355	1120435.729309	7.672699e-01	11	none	NaN	NaN
104	1	27	42	bathroom	sun_apeeialkgkuxddgh.tif	1120436.490846	1120436.749431	1120437.489433	7.589300e-01	32	none	NaN	NaN
104	1	28	56	bathroom	sun_awnqiikzaispgmwo.tif	1120438.250920	1120438.509503	1120439.249621	8.173092e-01	46	none	NaN	NaN
104	1	29	44	bathroom	sun_apkruvsevgegsdwp.tif	1120440.019337	1120440.277928	1120441.018000	7.422502e-01	34	none	NaN	NaN
104	1	30	20	bathroom	sun_afcoljnjfoxjtgja.tif	1120441.787755	1120442.046341	1120442.786318	7.172305e-01	10	none	NaN	NaN
104	1	31	28	bathroom	sun_ahijqszoswveeyji.tif	1120443.547830	1120443.806416	1120444.546535	8.423289e-01	18	none	NaN	NaN
104	1	32	26	bathroom	sun_ahaulkltgpkeeemi.tif	1120445.316248	1120445.574836	1120446.314830	7.672699e-01	16	none	NaN	NaN
104	1	33	22	bathroom	sun_agguqiubmwhqqunb.tif	1120447.084667	1120447.343255	1120448.083230	7.005508e-01	12	none	NaN	NaN
104	1	34	47	bathroom	sun_apynckhmoftszqoq.tif	1120448.844745	1120449.103327	1120449.843290	7.589300e-01	37	none	NaN	NaN
104	1	35	45	bathroom	sun_apkxzenqapsujocq.tif	1120450.604821	1120450.863408	1120451.603535	8.173092e-01	35	none	NaN	NaN
104	1	36	34	bathroom	sun_alkosphxlxwjwgjd.tif	1120452.373237	1120452.631819	1120453.371773	8.339890e-01	24	none	NaN	NaN
104	1	37	12	bathroom	sun_aapitsgbtktqubfy.tif	1120454.133310	1120454.391896	1120455.131824	8.089693e-01	2	none	NaN	NaN
104	1	38	52	bathroom	sun_aunuadmjocsddsrl.tif	1120455.901728	1120456.160316	1120456.900292	7.088906e-01	42	none	NaN	NaN
104	1	39	50	bathroom	sun_aspsyogrekjtfozg.tif	1120457.661804	1120457.920398	1120458.660334	7.922895e-01	40	none	NaN	NaN
104	1	40	54	bathroom	sun_auzqhkafidnkrwmo.tif	1120459.421881	1120459.680472	1120460.420531	6.505114e-01	44	none	NaN	NaN
104	1	41	31	bathroom	sun_akiytfaagpdsphgz.tif	1120461.190297	1120461.448883	1120462.188939	6.588513e-01	21	37	1120463.543962	0
104	1	42	48	bathroom	sun_aqrpegblszgcoujh.tif	1120464.318393	1120464.576988	1120465.317086	8.089693e-01	38	none	NaN	NaN
104	1	43	35	bathroom	sun_alotolagknyrgtsk.tif	1120466.086813	1120466.345397	1120467.085443	8.006294e-01	25	none	NaN	NaN
104	1	44	24	bathroom	sun_agrwbmhcpmfuwmsg.tif	1120467.846891	1120468.105481	1120468.845479	7.255704e-01	14	none	NaN	NaN
104	1	45	40	bathroom	sun_aofnryafpsjimzsb.tif	1120469.606969	1120469.865553	1120470.605595	7.839497e-01	30	none	NaN	NaN
104	1	46	36	bathroom	sun_ambriybtogmepttm.tif	1120471.367037	1120471.625622	1120472.365736	7.756098e-01	26	none	NaN	NaN
104	1	47	57	bathroom	sun_axldvoqbuvuggfmq.tif	1120473.135461	1120473.394052	1120474.134094	8.256491e-01	47	none	NaN	NaN
104	1	48	43	bathroom	sun_apjevzvycyhuqghb.tif	1120474.895541	1120475.154123	1120475.894251	6.505114e-01	33	none	NaN	NaN
104	1	49	32	bathroom	sun_aleqenyvunhactkl.tif	1120476.663956	1120476.922544	1120477.662606	7.005508e-01	22	none	NaN	NaN
104	1	50	51	bathroom	sun_atstyziqcmkahyxk.tif	1120478.432370	1120478.690957	1120479.431001	8.006294e-01	41	none	NaN	NaN
104	1	51	59	bathroom	sun_axyrejkiiaqiurjk.tif	1120480.192446	1120480.451037	1120481.191112	7.005508e-01	49	none	NaN	NaN
104	1	52	11	bathroom	labelme_sfxiulhjbhlyiyt.tif	1120481.960864	1120482.219457	1120482.959399	7.339103e-01	1	none	NaN	NaN
104	1	53	25	bathroom	sun_agyqfjcfkdcydepw.tif	1120483.720937	1120483.979528	1120484.719645	7.505901e-01	15	none	NaN	NaN
104	1	54	16	bathroom	sun_acduarbnmmoglmiv.tif	1120485.489357	1120485.747950	1120486.487894	7.172305e-01	6	none	NaN	NaN
104	1	55	21	bathroom	sun_aggnnqpdorgxpvce.tif	1120487.249434	1120487.508022	1120488.248157	7.589300e-01	11	none	NaN	NaN
104	1	56	51	bathroom	sun_atstyziqcmkahyxk.tif	1120489.017852	1120489.276438	1120490.016384	7.922895e-01	41	none	NaN	NaN
104	1	57	32	bathroom	sun_aleqenyvunhactkl.tif	1120490.777926	1120491.036519	1120491.776440	7.922895e-01	22	none	NaN	NaN
104	1	58	33	bathroom	sun_aljolscmmzydegqp.tif	1120492.538003	1120492.796597	1120493.536607	7.672699e-01	23	none	NaN	NaN
104	1	59	18	bathroom	sun_acgyywnybuveqsro.tif	1120494.306423	1120494.565014	1120495.305015	7.088906e-01	8	none	NaN	NaN
104	1	60	36	bathroom	sun_ambriybtogmepttm.tif	1120496.066496	1120496.325088	1120497.065065	7.839497e-01	26	none	NaN	NaN
104	1	61	13	bathroom	sun_aavhrsfjbserjtht.tif	1120497.826574	1120498.085163	1120498.825246	8.506688e-01	3	none	NaN	NaN
104	1	62	56	bathroom	sun_awnqiikzaispgmwo.tif	1120499.594990	1120499.853581	1120500.593634	7.756098e-01	46	37	1120501.415823	0
104	1	63	14	bathroom	sun_abapwbhyhkfixyex.tif	1120502.189230	1120502.447821	1120503.187787	6.588513e-01	4	none	NaN	NaN
104	1	64	45	bathroom	sun_apkxzenqapsujocq.tif	1120503.949306	1120504.207894	1120504.947978	8.089693e-01	35	none	NaN	NaN
104	1	65	38	bathroom	sun_anhioqovhscjqqwb.tif	1120505.709385	1120505.967972	1120506.708065	8.256491e-01	28	37	1120507.799822	1
104	1	66	44	bathroom	sun_apkruvsevgegsdwp.tif	1120508.570542	1120508.829133	1120509.569271	8.006294e-01	34	37	1120510.751900	1
104	1	67	35	bathroom	sun_alotolagknyrgtsk.tif	1120511.523473	1120511.782060	1120512.522115	6.671912e-01	25	none	NaN	NaN
104	1	68	55	bathroom	sun_avhrdrntsqrjzccq.tif	1120513.291890	1120513.550479	1120514.290546	6.755311e-01	45	39	1120515.623794	1
104	1	69	22	bathroom	sun_agguqiubmwhqqunb.tif	1120516.394962	1120516.653554	1120517.393532	6.838710e-01	12	none	NaN	NaN
104	1	70	24	bathroom	sun_agrwbmhcpmfuwmsg.tif	1120518.155040	1120518.413624	1120519.153710	7.422502e-01	14	none	NaN	NaN
104	1	71	47	bathroom	sun_apynckhmoftszqoq.tif	1120519.923456	1120520.182049	1120520.922098	8.339890e-01	37	none	NaN	NaN
104	1	72	53	bathroom	sun_ausgutylgojavyoq.tif	1120521.691872	1120521.950465	1120522.690443	7.589300e-01	43	none	NaN	NaN
104	1	73	15	bathroom	sun_abjtwfukuwddzted.tif	1120523.451952	1120523.710536	1120524.450549	8.006294e-01	5	none	NaN	NaN
104	1	74	28	bathroom	sun_ahijqszoswveeyji.tif	1120525.212024	1120525.470613	1120526.210627	7.255704e-01	18	none	NaN	NaN
104	1	75	26	bathroom	sun_ahaulkltgpkeeemi.tif	1120526.980444	1120527.239030	1120527.978997	8.173092e-01	16	37	1120528.911785	1
104	1	76	58	bathroom	sun_axxbkopsgyouuebh.tif	1120529.683122	1120529.941712	1120530.681697	6.838710e-01	48	none	NaN	NaN
104	1	77	17	bathroom	sun_acegryoqftbzowsg.tif	1120531.443196	1120531.701789	1120532.441747	6.838710e-01	7	39	1120533.455897	0
104	1	78	54	bathroom	sun_auzqhkafidnkrwmo.tif	1120534.229287	1120534.487876	1120535.227915	8.339890e-01	44	none	NaN	NaN
104	1	79	30	bathroom	sun_ajlawzvmubibwbpy.tif	1120535.997706	1120536.256295	1120536.996285	7.172305e-01	20	none	NaN	NaN
104	1	80	19	bathroom	sun_aclfzgynxzxlbepz.tif	1120537.757788	1120538.016370	1120538.756468	8.256491e-01	9	none	NaN	NaN
104	1	81	60	bathroom	sun_azqyogdvyhahyram.tif	1120539.526201	1120539.784792	1120540.524813	7.255704e-01	50	none	NaN	NaN
104	1	82	50	bathroom	sun_aspsyogrekjtfozg.tif	1120541.286282	1120541.544869	1120542.284940	7.756098e-01	40	none	NaN	NaN
104	1	83	42	bathroom	sun_apeeialkgkuxddgh.tif	1120543.054696	1120543.313285	1120544.053381	7.005508e-01	32	none	NaN	NaN
104	1	84	49	bathroom	sun_asfwthctfqerjvxr.tif	1120544.823111	1120545.081708	1120545.821728	7.672699e-01	39	none	NaN	NaN
104	1	85	27	bathroom	sun_ahcvzmoyaycdoftf.tif	1120546.583192	1120546.841774	1120547.581744	7.005508e-01	17	none	NaN	NaN
104	1	86	12	bathroom	sun_aapitsgbtktqubfy.tif	1120548.343265	1120548.601854	1120549.341999	7.255704e-01	2	none	NaN	NaN
104	1	87	23	bathroom	sun_aghyqhbptboemmoq.tif	1120550.111687	1120550.370276	1120551.110309	6.505114e-01	13	37	1120553.135852	0
104	1	88	20	bathroom	sun_afcoljnjfoxjtgja.tif	1120553.907111	1120554.165704	1120554.905644	8.423289e-01	10	none	NaN	NaN
104	1	89	40	bathroom	sun_aofnryafpsjimzsb.tif	1120555.667187	1120555.925777	1120556.665756	6.588513e-01	30	none	NaN	NaN
104	1	90	39	bathroom	sun_anryaplzeujmzfkd.tif	1120557.427260	1120557.685852	1120558.425892	6.838710e-01	29	none	NaN	NaN
104	1	91	43	bathroom	sun_apjevzvycyhuqghb.tif	1120559.195678	1120559.454270	1120560.194407	8.256491e-01	33	none	NaN	NaN
104	1	92	34	bathroom	sun_alkosphxlxwjwgjd.tif	1120560.964096	1120561.222692	1120561.962714	6.671912e-01	24	none	NaN	NaN
104	1	93	41	bathroom	sun_aoybiabnpadelefl.tif	1120562.724175	1120562.982764	1120563.722881	8.423289e-01	31	none	NaN	NaN
104	1	94	46	bathroom	sun_apmqjbnwghzuhhzh.tif	1120564.492595	1120564.751188	1120565.491261	6.755311e-01	36	none	NaN	NaN
104	1	95	57	bathroom	sun_axldvoqbuvuggfmq.tif	1120566.261013	1120566.519607	1120567.259585	8.506688e-01	47	none	NaN	NaN
104	1	96	31	bathroom	sun_akiytfaagpdsphgz.tif	1120568.021088	1120568.279676	1120569.019642	7.505901e-01	21	37	1120569.975875	1
104	1	97	37	bathroom	sun_amzlamotzwfkwjco.tif	1120570.748789	1120571.007378	1120571.747323	7.088906e-01	27	none	NaN	NaN
104	1	98	29	bathroom	sun_ahqjwnzgolcaoidx.tif	1120572.508867	1120572.767456	1120573.507458	7.672699e-01	19	none	NaN	NaN
104	1	99	52	bathroom	sun_aunuadmjocsddsrl.tif	1120574.268944	1120574.527535	1120575.267633	7.922895e-01	42	none	NaN	NaN
104	1	100	48	bathroom	sun_aqrpegblszgcoujh.tif	1120576.037363	1120576.295952	1120577.036050	6.671912e-01	38	none	NaN	NaN
104	2	1	62	kitchen	labelme_kxvouciolcpqplr.tif	1120585.363262	1120585.621852	1120586.311952	8.256491e-01	52	none	NaN	NaN
104	2	2	82	kitchen	sun_aenotlpyftoioydp.tif	1120587.081630	1120587.340218	1120588.030225	7.005508e-01	72	none	NaN	NaN
104	2	3	80	kitchen	sun_aegoxogugdkwpmpj.tif	1120588.791655	1120589.050253	1120589.740183	8.256491e-01	70	none	NaN	NaN
104	2	4	84	kitchen	sun_aexklacwqwezaorf.tif	1120590.501688	1120590.760277	1120591.450271	7.505901e-01	74	none	NaN	NaN
104	2	5	88	kitchen	sun_agubuxuukhzyzpdp.tif	1120592.220055	1120592.478639	1120593.168603	7.422502e-01	78	none	NaN	NaN
104	2	6	85	kitchen	sun_afuyedyxivkhecmu.tif	1120593.930081	1120594.188670	1120594.878675	7.922895e-01	75	37	1120596.023837	1
104	2	7	73	kitchen	sun_abrcnpqqhmjwekyf.tif	1120596.799585	1120597.058172	1120597.748066	7.672699e-01	63	none	NaN	NaN
104	2	8	99	kitchen	sun_akcjzhbbjlbogpdi.tif	1120598.509616	1120598.768206	1120599.458137	7.255704e-01	89	none	NaN	NaN
104	2	9	75	kitchen	sun_acgtpgfybqjmzeyw.tif	1120600.219643	1120600.478233	1120601.168175	7.589300e-01	65	none	NaN	NaN
104	2	10	92	kitchen	sun_ahpczsiumwwocjkv.tif	1120601.929670	1120602.188265	1120602.878344	7.589300e-01	82	none	NaN	NaN
104	2	11	67	kitchen	sun_aarfiyshqohlwkmo.tif	1120603.648040	1120603.906631	1120604.596712	7.505901e-01	57	37	1120605.519961	1
104	2	12	89	kitchen	sun_agzzivivdpnawacl.tif	1120606.292329	1120606.550914	1120607.240861	7.088906e-01	79	none	NaN	NaN
104	2	13	87	kitchen	sun_agorklincwxrdtga.tif	1120608.002352	1120608.260943	1120608.950834	8.339890e-01	77	none	NaN	NaN
104	2	14	70	kitchen	sun_abdxkyyxwfskuaqb.tif	1120609.712380	1120609.970967	1120610.660903	7.005508e-01	60	none	NaN	NaN
104	2	15	69	kitchen	sun_abdenxonkemggwsq.tif	1120611.422408	1120611.680993	1120612.370900	6.505114e-01	59	none	NaN	NaN
104	2	16	66	kitchen	sun_aapllqyqlykszopd.tif	1120613.132430	1120613.391020	1120614.081026	7.339103e-01	56	37	1120615.584106	0
104	2	17	104	kitchen	sun_auticobqsbwgoppi.tif	1120616.360632	1120616.619220	1120617.309192	8.006294e-01	94	none	NaN	NaN
104	2	18	90	kitchen	sun_ahdycvpopffkzzsu.tif	1120618.070658	1120618.329250	1120619.019187	6.838710e-01	80	none	NaN	NaN
104	2	19	96	kitchen	sun_ajcbwwvdlsvjyzje.tif	1120619.789029	1120620.047609	1120620.737541	7.005508e-01	86	none	NaN	NaN
104	2	20	65	kitchen	sun_aamedkxepzlwuxes.tif	1120621.499050	1120621.757641	1120622.447731	7.088906e-01	55	none	NaN	NaN
104	2	21	106	kitchen	sun_awcpdzzznmweyyhv.tif	1120623.217418	1120623.476010	1120624.165928	7.672699e-01	96	none	NaN	NaN
104	2	22	83	kitchen	sun_aeqdocilnnpuvuhx.tif	1120624.927447	1120625.186043	1120625.876080	8.423289e-01	73	none	NaN	NaN
104	2	23	64	kitchen	sun_aadbddgrdsjugojn.tif	1120626.645817	1120626.904403	1120627.594479	7.839497e-01	54	none	NaN	NaN
104	2	24	61	kitchen	labelme_brsyyvweiuaazfr.tif	1120628.364182	1120628.622778	1120629.312652	7.172305e-01	51	none	NaN	NaN
104	2	25	107	kitchen	sun_axyyrmzcupyhlivc.tif	1120630.074210	1120630.332802	1120631.022841	7.339103e-01	97	none	NaN	NaN
104	2	26	91	kitchen	sun_ahljzhgcdpomplvg.tif	1120631.784240	1120632.042833	1120632.732768	6.588513e-01	81	none	NaN	NaN
104	2	27	94	kitchen	sun_ahywdevtimnqcsln.tif	1120633.494263	1120633.752854	1120634.442769	7.505901e-01	84	none	NaN	NaN
104	2	28	78	kitchen	sun_adgqasybjyktddhj.tif	1120635.204293	1120635.462887	1120636.152979	7.255704e-01	68	none	NaN	NaN
104	2	29	102	kitchen	sun_auaiucuqpdausiva.tif	1120636.922663	1120637.181251	1120637.871257	6.922109e-01	92	none	NaN	NaN
104	2	30	95	kitchen	sun_aixorpehvfykdynp.tif	1120638.641034	1120638.899618	1120639.589514	6.671912e-01	85	none	NaN	NaN
104	2	31	81	kitchen	sun_aehawpgmrlhlvcow.tif	1120640.351058	1120640.609647	1120641.299596	7.005508e-01	71	39	1120642.895923	1
104	2	32	74	kitchen	sun_acfmftudsenhrfhy.tif	1120643.671013	1120643.929598	1120644.619539	8.339890e-01	64	37	1120645.999769	1
104	2	33	72	kitchen	sun_abpwyqmlzafvklqo.tif	1120646.774082	1120647.032673	1120647.722668	7.088906e-01	62	none	NaN	NaN
104	2	34	109	kitchen	sun_aypmqwcualkenuoe.tif	1120648.492486	1120648.751044	1120649.440980	7.172305e-01	99	37	1120650.767865	1
104	2	35	63	kitchen	labelme_rykdqxenmhulbdn.tif	1120651.545479	1120651.804068	1120652.494132	7.756098e-01	53	none	NaN	NaN
104	2	36	105	kitchen	sun_avszsnwsbuqfgzbn.tif	1120653.263843	1120653.522440	1120654.212470	7.088906e-01	95	none	NaN	NaN
104	2	37	98	kitchen	sun_akchetnepxlcxhsu.tif	1120654.982216	1120655.240800	1120655.930875	8.089693e-01	88	none	NaN	NaN
104	2	38	86	kitchen	sun_aggjlwcdjsjcaemh.tif	1120656.700582	1120656.959176	1120657.649107	6.671912e-01	76	none	NaN	NaN
104	2	39	68	kitchen	sun_aaxxjlsuzvqlgylf.tif	1120658.410614	1120658.669191	1120659.359099	7.589300e-01	58	none	NaN	NaN
104	2	40	71	kitchen	sun_abftihopvusyfakt.tif	1120660.120638	1120660.379225	1120661.069264	8.423289e-01	61	none	NaN	NaN
104	2	41	93	kitchen	sun_ahspylgoovwmwvgk.tif	1120661.839002	1120662.097592	1120662.787659	7.672699e-01	83	39	1120664.639876	1
104	2	42	100	kitchen	sun_amjjdeyrggfqgmom.tif	1120665.417551	1120665.676140	1120666.366102	8.173092e-01	90	none	NaN	NaN
104	2	43	108	kitchen	sun_aymvwlarqodbwuoc.tif	1120667.127577	1120667.386169	1120668.076076	6.755311e-01	98	none	NaN	NaN
104	2	44	76	kitchen	sun_acwjdupvyjsugpay.tif	1120668.837604	1120669.096188	1120669.786234	7.839497e-01	66	none	NaN	NaN
104	2	45	97	kitchen	sun_ajkqhtgcbgpcwrwn.tif	1120670.555971	1120670.814559	1120671.504482	7.756098e-01	87	none	NaN	NaN
104	2	46	79	kitchen	sun_admlmbcdswaszruo.tif	1120672.266002	1120672.524590	1120673.214651	8.256491e-01	69	none	NaN	NaN
104	2	47	77	kitchen	sun_acxkpeoqbwcxfvip.tif	1120673.984368	1120674.242952	1120674.933028	7.922895e-01	67	none	NaN	NaN
104	2	48	103	kitchen	sun_aunzlwrbjumxhwdj.tif	1120675.702738	1120675.961327	1120676.651356	7.839497e-01	93	none	NaN	NaN
104	2	49	110	kitchen	sun_azmutvzbxypaceni.tif	1120677.421109	1120677.679692	1120678.369756	8.006294e-01	100	none	NaN	NaN
104	2	50	101	kitchen	sun_aqeaevwwwjoqhzvl.tif	1120679.139470	1120679.398058	1120680.087949	7.172305e-01	91	none	NaN	NaN
104	2	51	88	kitchen	sun_agubuxuukhzyzpdp.tif	1120680.849502	1120681.108089	1120681.798012	8.173092e-01	78	none	NaN	NaN
104	2	52	92	kitchen	sun_ahpczsiumwwocjkv.tif	1120682.559528	1120682.818115	1120683.508058	6.922109e-01	82	37	1120684.543928	0
104	2	53	66	kitchen	sun_aapllqyqlykszopd.tif	1120685.320591	1120685.579181	1120686.269175	8.089693e-01	56	none	NaN	NaN
104	2	54	102	kitchen	sun_auaiucuqpdausiva.tif	1120687.038968	1120687.297553	1120687.987592	7.922895e-01	92	37	1120688.975886	1
104	2	55	78	kitchen	sun_adgqasybjyktddhj.tif	1120689.749984	1120690.008573	1120690.698468	7.922895e-01	68	none	NaN	NaN
104	2	56	68	kitchen	sun_aaxxjlsuzvqlgylf.tif	1120691.460012	1120691.718605	1120692.408519	6.755311e-01	58	none	NaN	NaN
104	2	57	62	kitchen	labelme_kxvouciolcpqplr.tif	1120693.170042	1120693.428625	1120694.118622	6.588513e-01	52	none	NaN	NaN
104	2	58	100	kitchen	sun_amjjdeyrggfqgmom.tif	1120694.888403	1120695.146995	1120695.836915	6.922109e-01	90	none	NaN	NaN
104	2	59	74	kitchen	sun_acfmftudsenhrfhy.tif	1120696.598435	1120696.857023	1120697.546999	7.172305e-01	64	none	NaN	NaN
104	2	60	109	kitchen	sun_aypmqwcualkenuoe.tif	1120698.308485	1120698.567048	1120699.257011	8.423289e-01	99	none	NaN	NaN
104	2	61	105	kitchen	sun_avszsnwsbuqfgzbn.tif	1120700.018491	1120700.277077	1120700.967138	7.589300e-01	95	none	NaN	NaN
104	2	62	67	kitchen	sun_aarfiyshqohlwkmo.tif	1120701.736856	1120701.995443	1120702.685517	6.838710e-01	57	none	NaN	NaN
104	2	63	83	kitchen	sun_aeqdocilnnpuvuhx.tif	1120703.455220	1120703.713812	1120704.403754	6.671912e-01	73	none	NaN	NaN
104	2	64	90	kitchen	sun_ahdycvpopffkzzsu.tif	1120705.165253	1120705.423846	1120706.113812	6.755311e-01	80	none	NaN	NaN
104	2	65	75	kitchen	sun_acgtpgfybqjmzeyw.tif	1120706.875279	1120707.133867	1120707.823761	7.756098e-01	65	none	NaN	NaN
104	2	66	101	kitchen	sun_aqeaevwwwjoqhzvl.tif	1120708.585308	1120708.843895	1120709.533792	7.756098e-01	91	none	NaN	NaN
104	2	67	82	kitchen	sun_aenotlpyftoioydp.tif	1120710.295330	1120710.553925	1120711.243906	6.838710e-01	72	37	1120712.296164	0
104	2	68	97	kitchen	sun_ajkqhtgcbgpcwrwn.tif	1120713.073083	1120713.331675	1120714.021719	7.005508e-01	87	none	NaN	NaN
104	2	69	77	kitchen	sun_acxkpeoqbwcxfvip.tif	1120714.791457	1120715.050045	1120715.739992	7.339103e-01	67	none	NaN	NaN
104	2	70	63	kitchen	labelme_rykdqxenmhulbdn.tif	1120716.509821	1120716.768411	1120717.458400	7.422502e-01	53	none	NaN	NaN
104	2	71	87	kitchen	sun_agorklincwxrdtga.tif	1120718.228191	1120718.486782	1120719.176808	8.339890e-01	77	none	NaN	NaN
104	2	72	84	kitchen	sun_aexklacwqwezaorf.tif	1120719.938218	1120720.196806	1120720.886690	7.672699e-01	74	none	NaN	NaN
104	2	73	94	kitchen	sun_ahywdevtimnqcsln.tif	1120721.648245	1120721.906831	1120722.596751	6.922109e-01	84	37	1120724.327845	1
104	2	74	65	kitchen	sun_aamedkxepzlwuxes.tif	1120725.101663	1120725.360253	1120726.050231	8.506688e-01	55	none	NaN	NaN
104	2	75	96	kitchen	sun_ajcbwwvdlsvjyzje.tif	1120726.811695	1120727.070279	1120727.760186	7.505901e-01	86	39	1120730.503952	1
104	2	76	106	kitchen	sun_awcpdzzznmweyyhv.tif	1120731.274445	1120731.533035	1120732.223000	8.006294e-01	96	none	NaN	NaN
104	2	77	80	kitchen	sun_aegoxogugdkwpmpj.tif	1120732.984474	1120733.243059	1120733.932951	8.256491e-01	70	37	1120736.303647	1
104	2	78	95	kitchen	sun_aixorpehvfykdynp.tif	1120737.080195	1120737.338785	1120738.028714	7.422502e-01	85	none	NaN	NaN
104	2	79	81	kitchen	sun_aehawpgmrlhlvcow.tif	1120738.790220	1120739.048810	1120739.738878	8.173092e-01	71	none	NaN	NaN
104	2	80	76	kitchen	sun_acwjdupvyjsugpay.tif	1120740.508590	1120740.767180	1120741.457090	6.588513e-01	66	37	1120743.815749	0
104	2	81	61	kitchen	labelme_brsyyvweiuaazfr.tif	1120744.587634	1120744.846217	1120745.536193	8.089693e-01	51	none	NaN	NaN
104	2	82	98	kitchen	sun_akchetnepxlcxhsu.tif	1120746.306001	1120746.564593	1120747.254620	8.006294e-01	88	none	NaN	NaN
104	2	83	91	kitchen	sun_ahljzhgcdpomplvg.tif	1120748.024370	1120748.282973	1120748.972995	6.505114e-01	81	none	NaN	NaN
104	2	84	72	kitchen	sun_abpwyqmlzafvklqo.tif	1120749.742737	1120750.001322	1120750.691250	6.588513e-01	62	none	NaN	NaN
104	2	85	107	kitchen	sun_axyyrmzcupyhlivc.tif	1120751.452763	1120751.711352	1120752.401320	7.422502e-01	97	37	1120755.431763	0
104	2	86	104	kitchen	sun_auticobqsbwgoppi.tif	1120756.207474	1120756.466061	1120757.156096	6.838710e-01	94	none	NaN	NaN
104	2	87	108	kitchen	sun_aymvwlarqodbwuoc.tif	1120757.925838	1120758.184431	1120758.874490	7.255704e-01	98	none	NaN	NaN
104	2	88	93	kitchen	sun_ahspylgoovwmwvgk.tif	1120759.644211	1120759.902798	1120760.592703	8.256491e-01	83	none	NaN	NaN
104	2	89	86	kitchen	sun_aggjlwcdjsjcaemh.tif	1120761.354237	1120761.612829	1120762.302717	8.173092e-01	76	none	NaN	NaN
104	2	90	103	kitchen	sun_aunzlwrbjumxhwdj.tif	1120763.064265	1120763.322852	1120764.012896	6.505114e-01	93	none	NaN	NaN
104	2	91	73	kitchen	sun_abrcnpqqhmjwekyf.tif	1120764.774295	1120765.032885	1120765.722882	7.339103e-01	63	none	NaN	NaN
104	2	92	89	kitchen	sun_agzzivivdpnawacl.tif	1120766.492663	1120766.751251	1120767.441174	7.672699e-01	79	none	NaN	NaN
104	2	93	71	kitchen	sun_abftihopvusyfakt.tif	1120768.202689	1120768.461277	1120769.151376	6.755311e-01	61	none	NaN	NaN
104	2	94	85	kitchen	sun_afuyedyxivkhecmu.tif	1120769.921057	1120770.179646	1120770.869623	8.506688e-01	75	none	NaN	NaN
104	2	95	64	kitchen	sun_aadbddgrdsjugojn.tif	1120771.631083	1120771.889675	1120772.579613	6.671912e-01	54	none	NaN	NaN
104	2	96	110	kitchen	sun_azmutvzbxypaceni.tif	1120773.341111	1120773.599701	1120774.289784	8.423289e-01	100	none	NaN	NaN
104	2	97	70	kitchen	sun_abdxkyyxwfskuaqb.tif	1120775.059480	1120775.318070	1120776.008150	8.339890e-01	60	none	NaN	NaN
104	2	98	99	kitchen	sun_akcjzhbbjlbogpdi.tif	1120776.777848	1120777.036442	1120777.726478	7.839497e-01	89	none	NaN	NaN
104	2	99	79	kitchen	sun_admlmbcdswaszruo.tif	1120778.496219	1120778.754809	1120779.444732	8.089693e-01	69	none	NaN	NaN
104	2	100	69	kitchen	sun_abdenxonkemggwsq.tif	1120780.206243	1120780.464835	1120781.154923	7.255704e-01	59	none	NaN	NaN
104	3	1	27	bathroom	sun_ahcvzmoyaycdoftf.tif	1120789.807417	1120790.066011	1120790.880999	8.256491e-01	17	none	NaN	NaN
104	3	2	21	bathroom	sun_aggnnqpdorgxpvce.tif	1120791.642574	1120791.901162	1120792.716188	6.922109e-01	11	37	1120794.319905	0
104	3	3	19	bathroom	sun_aclfzgynxzxlbepz.tif	1120795.095992	1120795.354580	1120796.169573	8.256491e-01	9	none	NaN	NaN
104	3	4	46	bathroom	sun_apmqjbnwghzuhhzh.tif	1120796.931145	1120797.189731	1120798.004761	7.088906e-01	36	none	NaN	NaN
104	3	5	17	bathroom	sun_acegryoqftbzowsg.tif	1120798.766295	1120799.024883	1120799.839912	8.423289e-01	7	none	NaN	NaN
104	3	6	34	bathroom	sun_alkosphxlxwjwgjd.tif	1120800.601442	1120800.860031	1120801.675114	7.255704e-01	24	none	NaN	NaN
104	3	7	18	bathroom	sun_acgyywnybuveqsro.tif	1120802.436597	1120802.695187	1120803.510374	7.088906e-01	8	none	NaN	NaN
104	3	8	38	bathroom	sun_anhioqovhscjqqwb.tif	1120804.280086	1120804.538676	1120805.353732	6.755311e-01	28	none	NaN	NaN
104	3	9	50	bathroom	sun_aspsyogrekjtfozg.tif	1120806.115242	1120806.373828	1120807.188835	8.423289e-01	40	none	NaN	NaN
104	3	10	29	bathroom	sun_ahqjwnzgolcaoidx.tif	1120807.950393	1120808.208979	1120809.024082	7.088906e-01	19	37	1120814.199643	1
104	3	11	53	bathroom	sun_ausgutylgojavyoq.tif	1120814.974013	1120815.232607	1120816.047694	6.588513e-01	43	none	NaN	NaN
104	3	12	59	bathroom	sun_axyrejkiiaqiurjk.tif	1120816.817506	1120817.076097	1120817.891165	7.839497e-01	49	none	NaN	NaN
104	3	13	24	bathroom	sun_agrwbmhcpmfuwmsg.tif	1120818.652659	1120818.911244	1120819.726228	8.006294e-01	14	none	NaN	NaN
104	3	14	58	bathroom	sun_axxbkopsgyouuebh.tif	1120820.487809	1120820.746396	1120821.561566	7.505901e-01	48	none	NaN	NaN
104	3	15	31	bathroom	sun_akiytfaagpdsphgz.tif	1120822.331303	1120822.589893	1120823.404897	6.838710e-01	21	none	NaN	NaN
104	3	16	13	bathroom	sun_aavhrsfjbserjtht.tif	1120824.166450	1120824.425043	1120825.240220	7.589300e-01	3	none	NaN	NaN
104	3	17	54	bathroom	sun_auzqhkafidnkrwmo.tif	1120826.009942	1120826.268538	1120827.083563	8.339890e-01	44	37	1120835.799995	1
104	3	18	37	bathroom	sun_amzlamotzwfkwjco.tif	1120836.570408	1120836.828994	1120837.644174	7.339103e-01	27	none	NaN	NaN
104	3	19	49	bathroom	sun_asfwthctfqerjvxr.tif	1120838.413897	1120838.672486	1120839.487636	7.172305e-01	39	none	NaN	NaN
104	3	20	45	bathroom	sun_apkxzenqapsujocq.tif	1120840.257391	1120840.515980	1120841.330996	6.755311e-01	35	none	NaN	NaN
104	3	21	39	bathroom	sun_anryaplzeujmzfkd.tif	1120842.100882	1120842.359477	1120843.174478	6.505114e-01	29	none	NaN	NaN
104	3	22	51	bathroom	sun_atstyziqcmkahyxk.tif	1120843.936039	1120844.194625	1120845.009830	7.672699e-01	41	none	NaN	NaN
104	3	23	30	bathroom	sun_ajlawzvmubibwbpy.tif	1120845.779526	1120846.038115	1120846.853215	6.922109e-01	20	none	NaN	NaN
104	3	24	33	bathroom	sun_aljolscmmzydegqp.tif	1120847.623017	1120847.881611	1120848.696724	7.839497e-01	23	none	NaN	NaN
104	3	25	20	bathroom	sun_afcoljnjfoxjtgja.tif	1120849.458167	1120849.716761	1120850.531843	6.755311e-01	10	none	NaN	NaN
104	3	26	60	bathroom	sun_azqyogdvyhahyram.tif	1120851.293320	1120851.551907	1120852.367080	8.089693e-01	50	none	NaN	NaN
104	3	27	22	bathroom	sun_agguqiubmwhqqunb.tif	1120853.136817	1120853.395402	1120854.210528	7.672699e-01	12	37	1120867.247950	0
104	3	28	55	bathroom	sun_avhrdrntsqrjzccq.tif	1120868.018224	1120868.276813	1120869.091820	7.172305e-01	45	none	NaN	NaN
104	3	29	52	bathroom	sun_aunuadmjocsddsrl.tif	1120869.853371	1120870.111965	1120870.927008	7.005508e-01	42	none	NaN	NaN
104	3	30	14	bathroom	sun_abapwbhyhkfixyex.tif	1120871.688527	1120871.947114	1120872.762319	7.922895e-01	4	none	NaN	NaN
104	3	31	35	bathroom	sun_alotolagknyrgtsk.tif	1120873.532014	1120873.790605	1120874.605724	7.756098e-01	25	32	1120927.607893	0
104	3	32	11	bathroom	labelme_sfxiulhjbhlyiyt.tif	1120928.386352	1120928.644941	1120929.459973	7.339103e-01	1	none	NaN	NaN
104	3	33	48	bathroom	sun_aqrpegblszgcoujh.tif	1120930.221498	1120930.480092	1120931.295204	8.256491e-01	38	none	NaN	NaN
104	3	34	28	bathroom	sun_ahijqszoswveeyji.tif	1120932.056655	1120932.315237	1120933.130439	7.505901e-01	18	39	1120934.584260	1
104	3	35	57	bathroom	sun_axldvoqbuvuggfmq.tif	1120935.359923	1120935.618514	1120936.433617	7.922895e-01	47	none	NaN	NaN
104	3	36	26	bathroom	sun_ahaulkltgpkeeemi.tif	1120937.195076	1120937.453659	1120938.268711	7.255704e-01	16	none	NaN	NaN
104	3	37	23	bathroom	sun_aghyqhbptboemmoq.tif	1120939.030226	1120939.288813	1120940.103987	8.173092e-01	13	none	NaN	NaN
104	3	38	47	bathroom	sun_apynckhmoftszqoq.tif	1120940.873720	1120941.132309	1120941.947360	7.422502e-01	37	none	NaN	NaN
104	3	39	42	bathroom	sun_apeeialkgkuxddgh.tif	1120942.708866	1120942.967457	1120943.782624	7.672699e-01	32	37	1120949.487815	0
104	3	40	25	bathroom	sun_agyqfjcfkdcydepw.tif	1120950.266356	1120950.524944	1120951.339975	6.838710e-01	15	none	NaN	NaN
104	3	41	32	bathroom	sun_aleqenyvunhactkl.tif	1120952.101504	1120952.360098	1120953.175148	7.505901e-01	22	37	1120972.223889	0
104	3	42	12	bathroom	sun_aapitsgbtktqubfy.tif	1120972.997199	1120973.255786	1120974.070980	8.006294e-01	2	none	NaN	NaN
104	3	43	36	bathroom	sun_ambriybtogmepttm.tif	1120974.840698	1120975.099286	1120975.914483	7.005508e-01	26	none	NaN	NaN
104	3	44	44	bathroom	sun_apkruvsevgegsdwp.tif	1120976.684192	1120976.942775	1120977.757902	8.506688e-01	34	none	NaN	NaN
104	3	45	56	bathroom	sun_awnqiikzaispgmwo.tif	1120978.527683	1120978.786274	1120979.601391	6.755311e-01	46	none	NaN	NaN
104	3	46	15	bathroom	sun_abjtwfukuwddzted.tif	1120980.371170	1120980.629767	1120981.444857	8.423289e-01	5	none	NaN	NaN
104	3	47	16	bathroom	sun_acduarbnmmoglmiv.tif	1120982.206327	1120982.464916	1120983.280087	7.005508e-01	6	none	NaN	NaN
104	3	48	43	bathroom	sun_apjevzvycyhuqghb.tif	1120984.049819	1120984.308410	1120985.123482	7.756098e-01	33	none	NaN	NaN
104	3	49	40	bathroom	sun_aofnryafpsjimzsb.tif	1120985.884971	1120986.143561	1120986.958707	6.671912e-01	30	none	NaN	NaN
104	3	50	41	bathroom	sun_aoybiabnpadelefl.tif	1120987.728463	1120987.987052	1120988.802203	6.671912e-01	31	none	NaN	NaN
104	3	51	27	bathroom	sun_ahcvzmoyaycdoftf.tif	1120989.571955	1120989.830544	1120990.645583	8.339890e-01	17	39	1121006.407921	0
104	3	52	36	bathroom	sun_ambriybtogmepttm.tif	1121007.181069	1121007.439657	1121008.254773	8.339890e-01	26	none	NaN	NaN
104	3	53	37	bathroom	sun_amzlamotzwfkwjco.tif	1121009.024557	1121009.283147	1121010.098207	8.089693e-01	27	none	NaN	NaN
104	3	54	14	bathroom	sun_abapwbhyhkfixyex.tif	1121010.859709	1121011.118298	1121011.933496	8.006294e-01	4	none	NaN	NaN
104	3	55	40	bathroom	sun_aofnryafpsjimzsb.tif	1121012.703202	1121012.961791	1121013.776870	7.172305e-01	30	none	NaN	NaN
104	3	56	41	bathroom	sun_aoybiabnpadelefl.tif	1121014.538354	1121014.796942	1121015.612122	6.588513e-01	31	none	NaN	NaN
104	3	57	39	bathroom	sun_anryaplzeujmzfkd.tif	1121016.381843	1121016.640434	1121017.455442	6.838710e-01	29	none	NaN	NaN
104	3	58	43	bathroom	sun_apjevzvycyhuqghb.tif	1121018.217000	1121018.475583	1121019.290597	6.922109e-01	33	none	NaN	NaN
104	3	59	60	bathroom	sun_azqyogdvyhahyram.tif	1121020.052147	1121020.310731	1121021.125783	7.005508e-01	50	37	1121023.431962	0
104	3	60	38	bathroom	sun_anhioqovhscjqqwb.tif	1121024.206259	1121024.464855	1121025.279934	7.255704e-01	28	none	NaN	NaN
104	3	61	12	bathroom	sun_aapitsgbtktqubfy.tif	1121026.041418	1121026.300004	1121027.114998	7.422502e-01	2	none	NaN	NaN
104	3	62	11	bathroom	labelme_sfxiulhjbhlyiyt.tif	1121027.876559	1121028.135151	1121028.950167	7.756098e-01	1	none	NaN	NaN
104	3	63	30	bathroom	sun_ajlawzvmubibwbpy.tif	1121029.711718	1121029.970309	1121030.785351	8.173092e-01	20	none	NaN	NaN
104	3	64	28	bathroom	sun_ahijqszoswveeyji.tif	1121031.546867	1121031.805452	1121032.620446	6.505114e-01	18	none	NaN	NaN
104	3	65	48	bathroom	sun_aqrpegblszgcoujh.tif	1121033.382016	1121033.640611	1121034.455720	7.505901e-01	38	none	NaN	NaN
104	3	66	25	bathroom	sun_agyqfjcfkdcydepw.tif	1121035.225510	1121035.484097	1121036.299225	7.422502e-01	15	none	NaN	NaN
104	3	67	23	bathroom	sun_aghyqhbptboemmoq.tif	1121037.069001	1121037.327594	1121038.142592	6.922109e-01	13	none	NaN	NaN
104	3	68	16	bathroom	sun_acduarbnmmoglmiv.tif	1121038.904154	1121039.162743	1121039.977774	7.339103e-01	6	none	NaN	NaN
104	3	69	58	bathroom	sun_axxbkopsgyouuebh.tif	1121040.739308	1121040.997894	1121041.813081	8.256491e-01	48	none	NaN	NaN
104	3	70	21	bathroom	sun_aggnnqpdorgxpvce.tif	1121042.582796	1121042.841385	1121043.656371	8.173092e-01	11	none	NaN	NaN
104	3	71	26	bathroom	sun_ahaulkltgpkeeemi.tif	1121044.417947	1121044.676535	1121045.491519	8.089693e-01	16	none	NaN	NaN
104	3	72	34	bathroom	sun_alkosphxlxwjwgjd.tif	1121046.253101	1121046.511690	1121047.326902	6.505114e-01	24	none	NaN	NaN
104	3	73	52	bathroom	sun_aunuadmjocsddsrl.tif	1121048.096594	1121048.355174	1121049.170242	6.671912e-01	42	none	NaN	NaN
104	3	74	15	bathroom	sun_abjtwfukuwddzted.tif	1121049.931744	1121050.190334	1121051.005506	7.589300e-01	5	none	NaN	NaN
104	3	75	13	bathroom	sun_aavhrsfjbserjtht.tif	1121051.775238	1121052.033844	1121052.848982	7.672699e-01	3	none	NaN	NaN
104	3	76	46	bathroom	sun_apmqjbnwghzuhhzh.tif	1121053.618733	1121053.877317	1121054.692492	8.423289e-01	36	none	NaN	NaN
104	3	77	59	bathroom	sun_axyrejkiiaqiurjk.tif	1121055.462217	1121055.720812	1121056.535856	7.922895e-01	49	none	NaN	NaN
104	3	78	42	bathroom	sun_apeeialkgkuxddgh.tif	1121057.297372	1121057.555962	1121058.371061	7.839497e-01	32	none	NaN	NaN
104	3	79	24	bathroom	sun_agrwbmhcpmfuwmsg.tif	1121059.132520	1121059.391108	1121060.206139	8.006294e-01	14	none	NaN	NaN
104	3	80	35	bathroom	sun_alotolagknyrgtsk.tif	1121060.967673	1121061.226261	1121062.041240	7.172305e-01	25	39	1121209.159910	0
104	3	81	57	bathroom	sun_axldvoqbuvuggfmq.tif	1121209.931891	1121210.190482	1121211.005510	8.256491e-01	47	none	NaN	NaN
104	3	82	32	bathroom	sun_aleqenyvunhactkl.tif	1121211.767039	1121212.025635	1121212.840807	7.422502e-01	22	none	NaN	NaN
104	3	83	55	bathroom	sun_avhrdrntsqrjzccq.tif	1121213.610539	1121213.869127	1121214.684329	7.922895e-01	45	39	1121219.431966	0
104	3	84	22	bathroom	sun_agguqiubmwhqqunb.tif	1121220.208737	1121220.467326	1121221.282332	6.588513e-01	12	none	NaN	NaN
104	3	85	45	bathroom	sun_apkxzenqapsujocq.tif	1121222.043890	1121222.302482	1121223.117564	7.339103e-01	35	none	NaN	NaN
104	3	86	20	bathroom	sun_afcoljnjfoxjtgja.tif	1121223.879043	1121224.137620	1121224.952734	7.839497e-01	10	37	1121281.376050	1
104	3	87	19	bathroom	sun_aclfzgynxzxlbepz.tif	1121282.153428	1121282.412017	1121283.227197	7.589300e-01	9	none	NaN	NaN
104	3	88	31	bathroom	sun_akiytfaagpdsphgz.tif	1121283.996924	1121284.255506	1121285.070537	7.589300e-01	21	none	NaN	NaN
104	3	89	47	bathroom	sun_apynckhmoftszqoq.tif	1121285.832072	1121286.090663	1121286.905653	8.506688e-01	37	none	NaN	NaN
104	3	90	17	bathroom	sun_acegryoqftbzowsg.tif	1121287.667224	1121287.925817	1121288.740871	6.838710e-01	7	none	NaN	NaN
104	3	91	33	bathroom	sun_aljolscmmzydegqp.tif	1121289.502374	1121289.760963	1121290.575997	7.255704e-01	23	none	NaN	NaN
104	3	92	51	bathroom	sun_atstyziqcmkahyxk.tif	1121291.337525	1121291.596085	1121292.411138	6.671912e-01	41	37	1121294.351864	1
104	3	93	54	bathroom	sun_auzqhkafidnkrwmo.tif	1121295.124607	1121295.383199	1121296.198242	8.173092e-01	44	none	NaN	NaN
104	3	94	18	bathroom	sun_acgyywnybuveqsro.tif	1121296.959759	1121297.218347	1121298.033449	7.005508e-01	8	none	NaN	NaN
104	3	95	50	bathroom	sun_aspsyogrekjtfozg.tif	1121298.794911	1121299.053506	1121299.868554	7.088906e-01	40	none	NaN	NaN
104	3	96	53	bathroom	sun_ausgutylgojavyoq.tif	1121300.630064	1121300.888658	1121301.703840	7.756098e-01	43	none	NaN	NaN
104	3	97	56	bathroom	sun_awnqiikzaispgmwo.tif	1121302.473556	1121302.732141	1121303.547289	8.089693e-01	46	37	1121308.095898	1
104	3	98	49	bathroom	sun_asfwthctfqerjvxr.tif	1121308.871557	1121309.130143	1121309.945339	7.672699e-01	39	none	NaN	NaN
104	3	99	44	bathroom	sun_apkruvsevgegsdwp.tif	1121310.715049	1121310.973639	1121311.788755	6.588513e-01	34	none	NaN	NaN
104	3	100	29	bathroom	sun_ahqjwnzgolcaoidx.tif	1121312.550207	1121312.808790	1121313.623980	8.339890e-01	19	none	NaN	NaN
104	4	1	68	kitchen	sun_aaxxjlsuzvqlgylf.tif	1121400.095256	1121400.353843	1121401.052107	7.255704e-01	58	none	NaN	NaN
104	4	2	77	kitchen	sun_acxkpeoqbwcxfvip.tif	1121401.813620	1121402.072210	1121402.770574	7.005508e-01	67	none	NaN	NaN
104	4	3	79	kitchen	sun_admlmbcdswaszruo.tif	1121403.531992	1121403.790581	1121404.488899	8.173092e-01	69	none	NaN	NaN
104	4	4	86	kitchen	sun_aggjlwcdjsjcaemh.tif	1121405.250359	1121405.508945	1121406.207193	7.088906e-01	76	none	NaN	NaN
104	4	5	94	kitchen	sun_ahywdevtimnqcsln.tif	1121406.968730	1121407.227315	1121407.925570	7.005508e-01	84	none	NaN	NaN
104	4	6	95	kitchen	sun_aixorpehvfykdynp.tif	1121408.687098	1121408.945691	1121409.644009	6.755311e-01	85	none	NaN	NaN
104	4	7	75	kitchen	sun_acgtpgfybqjmzeyw.tif	1121410.413805	1121410.672395	1121411.370870	7.505901e-01	65	none	NaN	NaN
104	4	8	88	kitchen	sun_agubuxuukhzyzpdp.tif	1121412.140518	1121412.399106	1121413.097509	6.588513e-01	78	none	NaN	NaN
104	4	9	85	kitchen	sun_afuyedyxivkhecmu.tif	1121413.867226	1121414.125816	1121414.824214	7.839497e-01	75	37	1121436.263969	1
104	4	10	104	kitchen	sun_auticobqsbwgoppi.tif	1121437.040180	1121437.298765	1121437.997144	7.589300e-01	94	39	1121473.111896	1
104	4	11	72	kitchen	sun_abpwyqmlzafvklqo.tif	1121473.884999	1121474.143594	1121474.841893	7.922895e-01	62	none	NaN	NaN
104	4	12	66	kitchen	sun_aapllqyqlykszopd.tif	1121475.603374	1121475.861969	1121476.560224	7.255704e-01	56	none	NaN	NaN
104	4	13	69	kitchen	sun_abdenxonkemggwsq.tif	1121477.321749	1121477.580339	1121478.278617	8.089693e-01	59	39	1121517.599949	1
104	4	14	108	kitchen	sun_aymvwlarqodbwuoc.tif	1121518.370743	1121518.629333	1121519.327724	6.755311e-01	98	none	NaN	NaN
104	4	15	105	kitchen	sun_avszsnwsbuqfgzbn.tif	1121520.097454	1121520.356043	1121521.054337	7.505901e-01	95	none	NaN	NaN
104	4	16	78	kitchen	sun_adgqasybjyktddhj.tif	1121521.815821	1121522.074415	1121522.772995	8.006294e-01	68	none	NaN	NaN
104	4	17	101	kitchen	sun_aqeaevwwwjoqhzvl.tif	1121523.542533	1121523.801121	1121524.499450	8.506688e-01	91	37	1121531.455870	0
104	4	18	99	kitchen	sun_akcjzhbbjlbogpdi.tif	1121532.226133	1121532.484724	1121533.183157	6.838710e-01	89	none	NaN	NaN
104	4	19	90	kitchen	sun_ahdycvpopffkzzsu.tif	1121533.952841	1121534.211431	1121534.909723	7.422502e-01	80	none	NaN	NaN
104	4	20	70	kitchen	sun_abdxkyyxwfskuaqb.tif	1121535.671213	1121535.929802	1121536.628203	8.339890e-01	60	none	NaN	NaN
104	4	21	81	kitchen	sun_aehawpgmrlhlvcow.tif	1121537.397922	1121537.656515	1121538.354828	8.006294e-01	71	32	1121668.943899	0
104	4	22	106	kitchen	sun_awcpdzzznmweyyhv.tif	1121669.720663	1121669.979254	1121670.677506	8.089693e-01	96	none	NaN	NaN
104	4	23	93	kitchen	sun_ahspylgoovwmwvgk.tif	1121671.439030	1121671.697622	1121672.395883	6.505114e-01	83	none	NaN	NaN
104	4	24	97	kitchen	sun_ajkqhtgcbgpcwrwn.tif	1121673.157401	1121673.415993	1121674.114271	7.172305e-01	87	none	NaN	NaN
104	4	25	91	kitchen	sun_ahljzhgcdpomplvg.tif	1121674.875769	1121675.134360	1121675.832588	7.255704e-01	81	none	NaN	NaN
104	4	26	96	kitchen	sun_ajcbwwvdlsvjyzje.tif	1121676.594135	1121676.852728	1121677.550978	8.089693e-01	86	none	NaN	NaN
104	4	27	62	kitchen	labelme_kxvouciolcpqplr.tif	1121678.312506	1121678.571093	1121679.269494	7.756098e-01	52	none	NaN	NaN
104	4	28	109	kitchen	sun_aypmqwcualkenuoe.tif	1121680.030874	1121680.289463	1121680.987860	7.756098e-01	99	32	1121853.039978	0
104	4	29	76	kitchen	sun_acwjdupvyjsugpay.tif	1121853.811334	1121854.069933	1121854.768397	8.089693e-01	66	none	NaN	NaN
104	4	30	87	kitchen	sun_agorklincwxrdtga.tif	1121855.538050	1121855.796640	1121856.494891	8.423289e-01	77	none	NaN	NaN
104	4	31	102	kitchen	sun_auaiucuqpdausiva.tif	1121857.256418	1121857.515008	1121858.213233	8.339890e-01	92	none	NaN	NaN
104	4	32	110	kitchen	sun_azmutvzbxypaceni.tif	1121858.974789	1121859.233367	1121859.931600	7.672699e-01	100	32	1121861.559990	0
104	4	33	98	kitchen	sun_akchetnepxlcxhsu.tif	1121862.336451	1121862.595037	1121863.293442	6.671912e-01	88	none	NaN	NaN
104	4	34	100	kitchen	sun_amjjdeyrggfqgmom.tif	1121864.063162	1121864.321750	1121865.020133	7.339103e-01	90	37	1121866.784051	1
104	4	35	107	kitchen	sun_axyyrmzcupyhlivc.tif	1121867.558287	1121867.816873	1121868.515276	7.672699e-01	97	none	NaN	NaN
104	4	36	65	kitchen	sun_aamedkxepzlwuxes.tif	1121869.284997	1121869.543587	1121870.241862	8.173092e-01	55	none	NaN	NaN
104	4	37	64	kitchen	sun_aadbddgrdsjugojn.tif	1121871.003365	1121871.261955	1121871.960286	7.339103e-01	54	39	1121873.024005	0
104	4	38	89	kitchen	sun_agzzivivdpnawacl.tif	1121873.797799	1121874.056394	1121874.754682	8.423289e-01	79	none	NaN	NaN
104	4	39	103	kitchen	sun_aunzlwrbjumxhwdj.tif	1121875.516173	1121875.774762	1121876.473155	6.838710e-01	93	none	NaN	NaN
104	4	40	71	kitchen	sun_abftihopvusyfakt.tif	1121877.242880	1121877.501473	1121878.199854	7.422502e-01	61	none	NaN	NaN
104	4	41	83	kitchen	sun_aeqdocilnnpuvuhx.tif	1121878.961252	1121879.219841	1121879.918190	6.505114e-01	73	none	NaN	NaN
104	4	42	73	kitchen	sun_abrcnpqqhmjwekyf.tif	1121880.679613	1121880.938209	1121881.636622	6.505114e-01	63	none	NaN	NaN
104	4	43	84	kitchen	sun_aexklacwqwezaorf.tif	1121882.406329	1121882.664921	1121883.363146	7.172305e-01	74	none	NaN	NaN
104	4	44	92	kitchen	sun_ahpczsiumwwocjkv.tif	1121884.124695	1121884.383287	1121885.081548	7.672699e-01	82	none	NaN	NaN
104	4	45	82	kitchen	sun_aenotlpyftoioydp.tif	1121885.843066	1121886.101656	1121886.800007	8.256491e-01	72	37	1121888.879808	0
104	4	46	80	kitchen	sun_aegoxogugdkwpmpj.tif	1121889.655173	1121889.913765	1121890.612077	6.922109e-01	70	none	NaN	NaN
104	4	47	61	kitchen	labelme_brsyyvweiuaazfr.tif	1121891.381885	1121891.640480	1121892.338870	7.088906e-01	51	none	NaN	NaN
104	4	48	63	kitchen	labelme_rykdqxenmhulbdn.tif	1121893.108597	1121893.367183	1121894.065472	8.173092e-01	53	39	1121895.895848	0
104	4	49	67	kitchen	sun_aarfiyshqohlwkmo.tif	1121896.670455	1121896.929050	1121897.627379	7.005508e-01	57	none	NaN	NaN
104	4	50	74	kitchen	sun_acfmftudsenhrfhy.tif	1121898.388825	1121898.647420	1121899.345811	7.422502e-01	64	none	NaN	NaN
104	4	51	91	kitchen	sun_ahljzhgcdpomplvg.tif	1121900.115539	1121900.374128	1121901.072364	7.922895e-01	81	none	NaN	NaN
104	4	52	85	kitchen	sun_afuyedyxivkhecmu.tif	1121901.833911	1121902.092497	1121902.790943	8.256491e-01	75	none	NaN	NaN
104	4	53	78	kitchen	sun_adgqasybjyktddhj.tif	1121903.560615	1121903.819211	1121904.517456	6.755311e-01	68	none	NaN	NaN
104	4	54	92	kitchen	sun_ahpczsiumwwocjkv.tif	1121905.278985	1121905.537594	1121906.235953	6.588513e-01	82	none	NaN	NaN
104	4	55	87	kitchen	sun_agorklincwxrdtga.tif	1121907.005698	1121907.264284	1121907.962724	8.256491e-01	77	none	NaN	NaN
104	4	56	102	kitchen	sun_auaiucuqpdausiva.tif	1121908.732408	1121908.990994	1121909.689363	7.255704e-01	92	none	NaN	NaN
104	4	57	66	kitchen	sun_aapllqyqlykszopd.tif	1121910.450777	1121910.709396	1121911.407702	8.006294e-01	56	37	1121912.376045	0
104	4	58	106	kitchen	sun_awcpdzzznmweyyhv.tif	1121913.153452	1121913.412042	1121914.110460	7.088906e-01	96	none	NaN	NaN
104	4	59	64	kitchen	sun_aadbddgrdsjugojn.tif	1121914.880166	1121915.138757	1121915.837126	7.088906e-01	54	none	NaN	NaN
104	4	60	80	kitchen	sun_aegoxogugdkwpmpj.tif	1121916.606874	1121916.865459	1121917.563736	6.671912e-01	70	none	NaN	NaN
104	4	61	73	kitchen	sun_abrcnpqqhmjwekyf.tif	1121918.325242	1121918.583832	1121919.282082	7.672699e-01	63	none	NaN	NaN
104	4	62	105	kitchen	sun_avszsnwsbuqfgzbn.tif	1121920.043611	1121920.302203	1121921.000555	7.422502e-01	95	none	NaN	NaN
104	4	63	62	kitchen	labelme_kxvouciolcpqplr.tif	1121921.761977	1121922.020569	1121922.718964	7.172305e-01	52	none	NaN	NaN
104	4	64	89	kitchen	sun_agzzivivdpnawacl.tif	1121923.488687	1121923.747282	1121924.445575	6.671912e-01	79	none	NaN	NaN
104	4	65	103	kitchen	sun_aunzlwrbjumxhwdj.tif	1121925.207055	1121925.465647	1121926.164060	8.256491e-01	93	37	1121928.143981	1
104	4	66	108	kitchen	sun_aymvwlarqodbwuoc.tif	1121928.919066	1121929.177656	1121929.875881	8.423289e-01	98	none	NaN	NaN
104	4	67	72	kitchen	sun_abpwyqmlzafvklqo.tif	1121930.637437	1121930.896024	1121931.594255	7.589300e-01	62	none	NaN	NaN
104	4	68	70	kitchen	sun_abdxkyyxwfskuaqb.tif	1121932.355804	1121932.614390	1121933.312768	6.922109e-01	60	none	NaN	NaN
104	4	69	68	kitchen	sun_aaxxjlsuzvqlgylf.tif	1121934.082519	1121934.341105	1121935.039450	6.755311e-01	58	37	1121936.016081	1
104	4	70	110	kitchen	sun_azmutvzbxypaceni.tif	1121936.793532	1121937.052128	1121937.750348	7.505901e-01	100	none	NaN	NaN
104	4	71	107	kitchen	sun_axyyrmzcupyhlivc.tif	1121938.511905	1121938.770494	1121939.468927	6.922109e-01	97	none	NaN	NaN
104	4	72	97	kitchen	sun_ajkqhtgcbgpcwrwn.tif	1121940.238612	1121940.497205	1121941.195425	7.339103e-01	87	none	NaN	NaN
104	4	73	65	kitchen	sun_aamedkxepzlwuxes.tif	1121941.956981	1121942.215575	1121942.913813	7.672699e-01	55	39	1121947.223628	1
104	4	74	99	kitchen	sun_akcjzhbbjlbogpdi.tif	1121947.996301	1121948.254888	1121948.953236	6.838710e-01	89	none	NaN	NaN
104	4	75	94	kitchen	sun_ahywdevtimnqcsln.tif	1121949.714664	1121949.973219	1121950.671595	7.839497e-01	84	none	NaN	NaN
104	4	76	83	kitchen	sun_aeqdocilnnpuvuhx.tif	1121951.433033	1121951.691625	1121952.389917	8.339890e-01	73	none	NaN	NaN
104	4	77	86	kitchen	sun_aggjlwcdjsjcaemh.tif	1121953.151405	1121953.409994	1121954.108329	6.671912e-01	76	none	NaN	NaN
104	4	78	95	kitchen	sun_aixorpehvfykdynp.tif	1121954.869775	1121955.128365	1121955.826748	7.589300e-01	85	none	NaN	NaN
104	4	79	74	kitchen	sun_acfmftudsenhrfhy.tif	1121956.588143	1121956.846732	1121957.545146	7.589300e-01	64	none	NaN	NaN
104	4	80	77	kitchen	sun_acxkpeoqbwcxfvip.tif	1121958.314854	1121958.573443	1121959.271833	7.756098e-01	67	none	NaN	NaN
104	4	81	79	kitchen	sun_admlmbcdswaszruo.tif	1121960.041565	1121960.300153	1121960.998458	7.922895e-01	69	none	NaN	NaN
104	4	82	84	kitchen	sun_aexklacwqwezaorf.tif	1121961.759931	1121962.018485	1121962.716893	8.506688e-01	74	none	NaN	NaN
104	4	83	88	kitchen	sun_agubuxuukhzyzpdp.tif	1121963.486640	1121963.745228	1121964.443500	7.922895e-01	78	none	NaN	NaN
104	4	84	109	kitchen	sun_aypmqwcualkenuoe.tif	1121965.205011	1121965.463603	1121966.161915	8.423289e-01	99	none	NaN	NaN
104	4	85	63	kitchen	labelme_rykdqxenmhulbdn.tif	1121966.923380	1121967.181969	1121967.880378	6.588513e-01	53	none	NaN	NaN
104	4	86	101	kitchen	sun_aqeaevwwwjoqhzvl.tif	1121968.650089	1121968.908679	1121969.607067	8.339890e-01	91	none	NaN	NaN
104	4	87	93	kitchen	sun_ahspylgoovwmwvgk.tif	1121970.376803	1121970.635386	1121971.333834	7.839497e-01	83	none	NaN	NaN
104	4	88	81	kitchen	sun_aehawpgmrlhlvcow.tif	1121972.103508	1121972.362101	1121973.060401	7.339103e-01	71	none	NaN	NaN
104	4	89	90	kitchen	sun_ahdycvpopffkzzsu.tif	1121973.821880	1121974.080467	1121974.778834	8.256491e-01	80	none	NaN	NaN
104	4	90	98	kitchen	sun_akchetnepxlcxhsu.tif	1121975.540249	1121975.798837	1121976.497187	7.756098e-01	88	none	NaN	NaN
104	4	91	69	kitchen	sun_abdenxonkemggwsq.tif	1121977.266958	1121977.525546	1121978.223783	6.922109e-01	59	none	NaN	NaN
104	4	92	96	kitchen	sun_ajcbwwvdlsvjyzje.tif	1121978.985329	1121979.243916	1121979.942294	6.838710e-01	86	none	NaN	NaN
104	4	93	75	kitchen	sun_acgtpgfybqjmzeyw.tif	1121980.712038	1121980.970628	1121981.668947	8.173092e-01	65	none	NaN	NaN
104	4	94	76	kitchen	sun_acwjdupvyjsugpay.tif	1121982.430408	1121982.688994	1121983.387379	7.172305e-01	66	none	NaN	NaN
104	4	95	104	kitchen	sun_auticobqsbwgoppi.tif	1121984.157119	1121984.415703	1121985.114003	8.006294e-01	94	none	NaN	NaN
104	4	96	82	kitchen	sun_aenotlpyftoioydp.tif	1121985.875489	1121986.134072	1121986.832354	7.839497e-01	72	none	NaN	NaN
104	4	97	61	kitchen	labelme_brsyyvweiuaazfr.tif	1121987.593855	1121987.852442	1121988.550697	7.005508e-01	51	none	NaN	NaN
104	4	98	71	kitchen	sun_abftihopvusyfakt.tif	1121989.312221	1121989.570816	1121990.269127	6.588513e-01	61	none	NaN	NaN
104	4	99	67	kitchen	sun_aarfiyshqohlwkmo.tif	1121991.030590	1121991.289186	1121991.987527	7.005508e-01	57	none	NaN	NaN
104	4	100	100	kitchen	sun_amjjdeyrggfqgmom.tif	1121992.757303	1121993.015887	1121993.714248	7.505901e-01	90	none	NaN	NaN
104	5	1	47	bathroom	sun_apynckhmoftszqoq.tif	1121998.571400	1121998.829983	1121999.536652	7.672699e-01	37	none	NaN	NaN
104	5	2	55	bathroom	sun_avhrdrntsqrjzccq.tif	1122000.298073	1122000.556695	1122001.263267	6.505114e-01	45	37	1122002.295948	0
104	5	3	45	bathroom	sun_apkxzenqapsujocq.tif	1122003.067511	1122003.326101	1122004.032742	7.422502e-01	35	none	NaN	NaN
104	5	4	41	bathroom	sun_aoybiabnpadelefl.tif	1122004.794228	1122005.052818	1122005.759597	7.088906e-01	31	none	NaN	NaN
104	5	5	21	bathroom	sun_aggnnqpdorgxpvce.tif	1122006.529276	1122006.787870	1122007.494691	7.172305e-01	11	none	NaN	NaN
104	5	6	36	bathroom	sun_ambriybtogmepttm.tif	1122008.264329	1122008.522917	1122009.229614	8.506688e-01	26	none	NaN	NaN
104	5	7	24	bathroom	sun_agrwbmhcpmfuwmsg.tif	1122009.991042	1122010.249626	1122010.956279	6.755311e-01	14	none	NaN	NaN
104	5	8	37	bathroom	sun_amzlamotzwfkwjco.tif	1122011.717754	1122011.976345	1122012.683011	7.005508e-01	27	none	NaN	NaN
104	5	9	20	bathroom	sun_afcoljnjfoxjtgja.tif	1122013.444459	1122013.703050	1122014.409691	7.255704e-01	10	none	NaN	NaN
104	5	10	40	bathroom	sun_aofnryafpsjimzsb.tif	1122015.171171	1122015.429755	1122016.136529	7.505901e-01	30	none	NaN	NaN
104	5	11	42	bathroom	sun_apeeialkgkuxddgh.tif	1122016.906224	1122017.164817	1122017.871396	8.089693e-01	32	none	NaN	NaN
104	5	12	13	bathroom	sun_aavhrsfjbserjtht.tif	1122018.632932	1122018.891523	1122019.598144	8.173092e-01	3	none	NaN	NaN
104	5	13	11	bathroom	labelme_sfxiulhjbhlyiyt.tif	1122020.359642	1122020.618230	1122021.324969	7.255704e-01	1	none	NaN	NaN
104	5	14	34	bathroom	sun_alkosphxlxwjwgjd.tif	1122022.094698	1122022.353287	1122023.060067	6.588513e-01	24	37	1122029.239665	1
104	5	15	51	bathroom	sun_atstyziqcmkahyxk.tif	1122030.010869	1122030.269455	1122030.976115	7.255704e-01	41	37	1122032.975962	0
104	5	16	32	bathroom	sun_aleqenyvunhactkl.tif	1122033.747908	1122034.006494	1122034.713244	7.839497e-01	22	none	NaN	NaN
104	5	17	26	bathroom	sun_ahaulkltgpkeeemi.tif	1122035.482959	1122035.741549	1122036.448139	7.922895e-01	16	none	NaN	NaN
104	5	18	33	bathroom	sun_aljolscmmzydegqp.tif	1122037.209667	1122037.468260	1122038.174852	7.005508e-01	23	37	1122042.832035	1
104	5	19	28	bathroom	sun_ahijqszoswveeyji.tif	1122043.607671	1122043.866264	1122044.572981	7.005508e-01	18	none	NaN	NaN
104	5	20	19	bathroom	sun_aclfzgynxzxlbepz.tif	1122045.342725	1122045.601330	1122046.308002	7.589300e-01	9	none	NaN	NaN
104	5	21	35	bathroom	sun_alotolagknyrgtsk.tif	1122047.069432	1122047.328021	1122048.034591	7.172305e-01	25	none	NaN	NaN
104	5	22	58	bathroom	sun_axxbkopsgyouuebh.tif	1122048.796144	1122049.054731	1122049.761350	8.506688e-01	48	none	NaN	NaN
104	5	23	27	bathroom	sun_ahcvzmoyaycdoftf.tif	1122050.522855	1122050.781444	1122051.488128	7.172305e-01	17	none	NaN	NaN
104	5	24	23	bathroom	sun_aghyqhbptboemmoq.tif	1122052.249563	1122052.508155	1122053.214769	8.089693e-01	13	none	NaN	NaN
104	5	25	56	bathroom	sun_awnqiikzaispgmwo.tif	1122053.976276	1122054.234864	1122054.941542	8.173092e-01	46	none	NaN	NaN
104	5	26	15	bathroom	sun_abjtwfukuwddzted.tif	1122055.702988	1122055.961578	1122056.668221	7.422502e-01	5	none	NaN	NaN
104	5	27	48	bathroom	sun_aqrpegblszgcoujh.tif	1122057.429695	1122057.688286	1122058.394949	8.423289e-01	38	none	NaN	NaN
104	5	28	18	bathroom	sun_acgyywnybuveqsro.tif	1122059.156411	1122059.414993	1122060.121590	8.173092e-01	8	none	NaN	NaN
104	5	29	60	bathroom	sun_azqyogdvyhahyram.tif	1122060.883119	1122061.141705	1122061.848366	8.006294e-01	50	none	NaN	NaN
104	5	30	46	bathroom	sun_apmqjbnwghzuhhzh.tif	1122062.609823	1122062.868416	1122063.575134	6.755311e-01	36	none	NaN	NaN
104	5	31	30	bathroom	sun_ajlawzvmubibwbpy.tif	1122064.336540	1122064.595129	1122065.301854	6.588513e-01	20	none	NaN	NaN
104	5	32	31	bathroom	sun_akiytfaagpdsphgz.tif	1122066.071591	1122066.330179	1122067.036946	8.423289e-01	21	none	NaN	NaN
104	5	33	16	bathroom	sun_acduarbnmmoglmiv.tif	1122067.806645	1122068.065230	1122068.771884	6.671912e-01	6	none	NaN	NaN
104	5	34	29	bathroom	sun_ahqjwnzgolcaoidx.tif	1122069.533350	1122069.791945	1122070.498618	7.088906e-01	19	37	1122076.743964	0
104	5	35	49	bathroom	sun_asfwthctfqerjvxr.tif	1122077.516259	1122077.774850	1122078.481504	7.672699e-01	39	none	NaN	NaN
104	5	36	43	bathroom	sun_apjevzvycyhuqghb.tif	1122079.242969	1122079.501559	1122080.208333	8.006294e-01	33	none	NaN	NaN
104	5	37	22	bathroom	sun_agguqiubmwhqqunb.tif	1122080.978022	1122081.236607	1122081.943263	7.005508e-01	12	none	NaN	NaN
104	5	38	17	bathroom	sun_acegryoqftbzowsg.tif	1122082.704732	1122082.963320	1122083.669887	6.671912e-01	7	none	NaN	NaN
104	5	39	44	bathroom	sun_apkruvsevgegsdwp.tif	1122084.431441	1122084.690030	1122085.396716	7.756098e-01	34	37	1122103.199879	0
104	5	40	52	bathroom	sun_aunuadmjocsddsrl.tif	1122103.975803	1122104.234394	1122104.941037	8.006294e-01	42	none	NaN	NaN
104	5	41	59	bathroom	sun_axyrejkiiaqiurjk.tif	1122105.702514	1122105.961101	1122106.667739	8.006294e-01	49	none	NaN	NaN
104	5	42	53	bathroom	sun_ausgutylgojavyoq.tif	1122107.429222	1122107.687810	1122108.394551	7.088906e-01	43	none	NaN	NaN
104	5	43	12	bathroom	sun_aapitsgbtktqubfy.tif	1122109.155936	1122109.414522	1122110.121255	6.588513e-01	2	none	NaN	NaN
104	5	44	25	bathroom	sun_agyqfjcfkdcydepw.tif	1122110.890989	1122111.149576	1122111.856236	7.672699e-01	15	none	NaN	NaN
104	5	45	14	bathroom	sun_abapwbhyhkfixyex.tif	1122112.617697	1122112.876281	1122113.583073	7.589300e-01	4	none	NaN	NaN
104	5	46	54	bathroom	sun_auzqhkafidnkrwmo.tif	1122114.352750	1122114.611337	1122115.317970	8.089693e-01	44	none	NaN	NaN
104	5	47	39	bathroom	sun_anryaplzeujmzfkd.tif	1122116.079460	1122116.338047	1122117.044654	7.839497e-01	29	none	NaN	NaN
104	5	48	38	bathroom	sun_anhioqovhscjqqwb.tif	1122117.806166	1122118.064753	1122118.771520	6.755311e-01	28	none	NaN	NaN
104	5	49	57	bathroom	sun_axldvoqbuvuggfmq.tif	1122119.541223	1122119.799811	1122120.506528	7.756098e-01	47	none	NaN	NaN
104	5	50	50	bathroom	sun_aspsyogrekjtfozg.tif	1122121.276274	1122121.534863	1122122.241581	8.089693e-01	40	none	NaN	NaN
104	5	51	50	bathroom	sun_aspsyogrekjtfozg.tif	1122123.011324	1122123.269910	1122123.976667	7.672699e-01	40	none	NaN	NaN
104	5	52	58	bathroom	sun_axxbkopsgyouuebh.tif	1122124.746378	1122125.004968	1122125.711725	8.256491e-01	48	none	NaN	NaN
104	5	53	13	bathroom	sun_aavhrsfjbserjtht.tif	1122126.481425	1122126.740018	1122127.446722	8.256491e-01	3	none	NaN	NaN
104	5	54	28	bathroom	sun_ahijqszoswveeyji.tif	1122128.216479	1122128.475074	1122129.181676	7.422502e-01	18	none	NaN	NaN
104	5	55	31	bathroom	sun_akiytfaagpdsphgz.tif	1122129.943190	1122130.201783	1122130.908494	7.589300e-01	21	none	NaN	NaN
104	5	56	14	bathroom	sun_abapwbhyhkfixyex.tif	1122131.669903	1122131.928488	1122132.635120	8.339890e-01	4	none	NaN	NaN
104	5	57	26	bathroom	sun_ahaulkltgpkeeemi.tif	1122133.396611	1122133.655202	1122134.361978	7.339103e-01	16	none	NaN	NaN
104	5	58	45	bathroom	sun_apkxzenqapsujocq.tif	1122135.131663	1122135.390257	1122136.096917	8.256491e-01	35	none	NaN	NaN
104	5	59	52	bathroom	sun_aunuadmjocsddsrl.tif	1122136.858374	1122137.116961	1122137.823627	7.839497e-01	42	none	NaN	NaN
104	5	60	15	bathroom	sun_abjtwfukuwddzted.tif	1122138.593427	1122138.852018	1122139.558599	8.423289e-01	5	none	NaN	NaN
104	5	61	42	bathroom	sun_apeeialkgkuxddgh.tif	1122140.320138	1122140.578718	1122141.285313	8.339890e-01	32	none	NaN	NaN
104	5	62	32	bathroom	sun_aleqenyvunhactkl.tif	1122142.046847	1122142.305438	1122143.012127	8.339890e-01	22	none	NaN	NaN
104	5	63	34	bathroom	sun_alkosphxlxwjwgjd.tif	1122143.781896	1122144.040488	1122144.747153	7.756098e-01	24	none	NaN	NaN
104	5	64	16	bathroom	sun_acduarbnmmoglmiv.tif	1122145.508608	1122145.767197	1122146.473908	8.256491e-01	6	none	NaN	NaN
104	5	65	44	bathroom	sun_apkruvsevgegsdwp.tif	1122147.243660	1122147.502248	1122148.208998	7.589300e-01	34	none	NaN	NaN
104	5	66	36	bathroom	sun_ambriybtogmepttm.tif	1122148.978711	1122149.237303	1122149.944047	7.505901e-01	26	none	NaN	NaN
104	5	67	27	bathroom	sun_ahcvzmoyaycdoftf.tif	1122150.713763	1122150.972355	1122151.678998	6.838710e-01	17	none	NaN	NaN
104	5	68	33	bathroom	sun_aljolscmmzydegqp.tif	1122152.440473	1122152.699072	1122153.405672	8.173092e-01	23	37	1122179.271846	0
104	5	69	49	bathroom	sun_asfwthctfqerjvxr.tif	1122180.042818	1122180.301409	1122181.008036	6.922109e-01	39	none	NaN	NaN
104	5	70	46	bathroom	sun_apmqjbnwghzuhhzh.tif	1122181.769528	1122182.028120	1122182.734795	6.588513e-01	36	32	1122241.503997	0
104	5	71	60	bathroom	sun_azqyogdvyhahyram.tif	1122242.279471	1122242.538056	1122243.244836	6.922109e-01	50	39	1122245.263811	0
104	5	72	56	bathroom	sun_awnqiikzaispgmwo.tif	1122246.041525	1122246.300111	1122247.006866	8.339890e-01	46	none	NaN	NaN
104	5	73	53	bathroom	sun_ausgutylgojavyoq.tif	1122247.776582	1122248.035171	1122248.741851	7.922895e-01	43	none	NaN	NaN
104	5	74	12	bathroom	sun_aapitsgbtktqubfy.tif	1122249.511629	1122249.770218	1122250.476803	7.922895e-01	2	none	NaN	NaN
104	5	75	38	bathroom	sun_anhioqovhscjqqwb.tif	1122251.238340	1122251.496931	1122252.203603	6.922109e-01	28	none	NaN	NaN
104	5	76	47	bathroom	sun_apynckhmoftszqoq.tif	1122252.965053	1122253.223637	1122253.930260	6.922109e-01	37	none	NaN	NaN
104	5	77	55	bathroom	sun_avhrdrntsqrjzccq.tif	1122254.700102	1122254.958694	1122255.665326	6.838710e-01	45	none	NaN	NaN
104	5	78	29	bathroom	sun_ahqjwnzgolcaoidx.tif	1122256.426815	1122256.685400	1122257.392127	8.423289e-01	19	none	NaN	NaN
104	5	79	20	bathroom	sun_afcoljnjfoxjtgja.tif	1122258.161864	1122258.420458	1122259.127172	7.839497e-01	10	37	1122303.224212	1
104	5	80	59	bathroom	sun_axyrejkiiaqiurjk.tif	1122303.998926	1122304.257527	1122304.964117	6.505114e-01	49	none	NaN	NaN
104	5	81	39	bathroom	sun_anryaplzeujmzfkd.tif	1122305.725646	1122305.984238	1122306.691017	7.255704e-01	29	none	NaN	NaN
104	5	82	18	bathroom	sun_acgyywnybuveqsro.tif	1122307.460699	1122307.719289	1122308.425891	7.339103e-01	8	none	NaN	NaN
104	5	83	21	bathroom	sun_aggnnqpdorgxpvce.tif	1122309.187413	1122309.446001	1122310.152694	7.088906e-01	11	none	NaN	NaN
104	5	84	37	bathroom	sun_amzlamotzwfkwjco.tif	1122310.922459	1122311.181056	1122311.887822	7.172305e-01	27	39	1122316.240060	1
104	5	85	11	bathroom	labelme_sfxiulhjbhlyiyt.tif	1122317.011827	1122317.270417	1122317.977098	7.339103e-01	1	37	1122379.615970	1
104	5	86	35	bathroom	sun_alotolagknyrgtsk.tif	1122380.391274	1122380.649866	1122381.356558	7.505901e-01	25	37	1122382.351860	1
104	5	87	30	bathroom	sun_ajlawzvmubibwbpy.tif	1122383.127316	1122383.385904	1122384.092516	7.672699e-01	20	none	NaN	NaN
104	5	88	57	bathroom	sun_axldvoqbuvuggfmq.tif	1122384.854028	1122385.112616	1122385.819224	6.838710e-01	47	none	NaN	NaN
104	5	89	22	bathroom	sun_agguqiubmwhqqunb.tif	1122386.580742	1122386.839329	1122387.545923	6.755311e-01	12	none	NaN	NaN
104	5	90	19	bathroom	sun_aclfzgynxzxlbepz.tif	1122388.307447	1122388.566036	1122389.272673	7.339103e-01	9	none	NaN	NaN
104	5	91	25	bathroom	sun_agyqfjcfkdcydepw.tif	1122390.034154	1122390.292748	1122390.999344	6.671912e-01	15	37	1122401.775811	1
104	5	92	43	bathroom	sun_apjevzvycyhuqghb.tif	1122402.546552	1122402.805143	1122403.511914	6.671912e-01	33	none	NaN	NaN
104	5	93	54	bathroom	sun_auzqhkafidnkrwmo.tif	1122404.281605	1122404.540190	1122405.246952	7.756098e-01	44	none	NaN	NaN
104	5	94	51	bathroom	sun_atstyziqcmkahyxk.tif	1122406.016655	1122406.275241	1122406.982020	7.422502e-01	41	none	NaN	NaN
104	5	95	24	bathroom	sun_agrwbmhcpmfuwmsg.tif	1122407.751709	1122408.010298	1122408.716880	6.838710e-01	14	none	NaN	NaN
104	5	96	23	bathroom	sun_aghyqhbptboemmoq.tif	1122409.478416	1122409.737010	1122410.443570	7.005508e-01	13	37	1122412.623981	0
104	5	97	40	bathroom	sun_aofnryafpsjimzsb.tif	1122413.398968	1122413.657560	1122414.364271	6.505114e-01	30	none	NaN	NaN
104	5	98	41	bathroom	sun_aoybiabnpadelefl.tif	1122415.134023	1122415.392611	1122416.099229	7.505901e-01	31	none	NaN	NaN
104	5	99	48	bathroom	sun_aqrpegblszgcoujh.tif	1122416.869071	1122417.127663	1122417.834441	7.922895e-01	38	none	NaN	NaN
104	5	100	17	bathroom	sun_acegryoqftbzowsg.tif	1122418.604126	1122418.862716	1122419.569487	8.256491e-01	7	none	NaN	NaN
104	6	1	64	kitchen	sun_aadbddgrdsjugojn.tif	1122425.836290	1122426.094879	1122426.834863	8.423289e-01	54	none	NaN	NaN
104	6	2	81	kitchen	sun_aehawpgmrlhlvcow.tif	1122427.596366	1122427.854955	1122428.594900	7.088906e-01	71	none	NaN	NaN
104	6	3	108	kitchen	sun_aymvwlarqodbwuoc.tif	1122429.356456	1122429.615034	1122430.355002	6.838710e-01	98	none	NaN	NaN
104	6	4	65	kitchen	sun_aamedkxepzlwuxes.tif	1122431.116516	1122431.375102	1122432.115099	8.256491e-01	55	none	NaN	NaN
104	6	5	87	kitchen	sun_agorklincwxrdtga.tif	1122432.876598	1122433.135182	1122433.875227	8.173092e-01	77	none	NaN	NaN
104	6	6	90	kitchen	sun_ahdycvpopffkzzsu.tif	1122434.636672	1122434.895260	1122435.635368	7.505901e-01	80	none	NaN	NaN
104	6	7	99	kitchen	sun_akcjzhbbjlbogpdi.tif	1122436.405093	1122436.663681	1122437.403679	7.672699e-01	89	37	1122449.439980	0
104	6	8	93	kitchen	sun_ahspylgoovwmwvgk.tif	1122450.210433	1122450.469024	1122451.209093	7.005508e-01	83	none	NaN	NaN
104	6	9	62	kitchen	labelme_kxvouciolcpqplr.tif	1122451.978853	1122452.237439	1122452.977521	6.671912e-01	52	none	NaN	NaN
104	6	10	69	kitchen	sun_abdenxonkemggwsq.tif	1122453.747271	1122454.005861	1122454.745917	6.838710e-01	59	none	NaN	NaN
104	6	11	98	kitchen	sun_akchetnepxlcxhsu.tif	1122455.515687	1122455.774273	1122456.514365	7.839497e-01	88	none	NaN	NaN
104	6	12	106	kitchen	sun_awcpdzzznmweyyhv.tif	1122457.284106	1122457.542694	1122458.282725	7.922895e-01	96	none	NaN	NaN
104	6	13	109	kitchen	sun_aypmqwcualkenuoe.tif	1122459.044184	1122459.302772	1122460.042876	6.922109e-01	99	none	NaN	NaN
104	6	14	100	kitchen	sun_amjjdeyrggfqgmom.tif	1122460.812604	1122461.071190	1122461.811155	7.172305e-01	90	none	NaN	NaN
104	6	15	89	kitchen	sun_agzzivivdpnawacl.tif	1122462.572677	1122462.831265	1122463.571311	8.256491e-01	79	none	NaN	NaN
104	6	16	103	kitchen	sun_aunzlwrbjumxhwdj.tif	1122464.332750	1122464.591338	1122465.331365	6.922109e-01	93	none	NaN	NaN
104	6	17	78	kitchen	sun_adgqasybjyktddhj.tif	1122466.092833	1122466.351421	1122467.091559	8.339890e-01	68	none	NaN	NaN
104	6	18	68	kitchen	sun_aaxxjlsuzvqlgylf.tif	1122467.861247	1122468.119842	1122468.859954	8.256491e-01	58	none	NaN	NaN
104	6	19	71	kitchen	sun_abftihopvusyfakt.tif	1122469.629666	1122469.888261	1122470.628304	7.088906e-01	61	none	NaN	NaN
104	6	20	105	kitchen	sun_avszsnwsbuqfgzbn.tif	1122471.389749	1122471.648333	1122472.388383	6.505114e-01	95	37	1122483.223999	0
104	6	21	73	kitchen	sun_abrcnpqqhmjwekyf.tif	1122484.002240	1122484.260825	1122485.000891	7.589300e-01	63	none	NaN	NaN
104	6	22	67	kitchen	sun_aarfiyshqohlwkmo.tif	1122485.770655	1122486.029246	1122486.769349	7.756098e-01	57	none	NaN	NaN
104	6	23	86	kitchen	sun_aggjlwcdjsjcaemh.tif	1122487.539074	1122487.797663	1122488.537772	8.006294e-01	76	none	NaN	NaN
104	6	24	74	kitchen	sun_acfmftudsenhrfhy.tif	1122489.307493	1122489.566082	1122490.306144	6.588513e-01	64	none	NaN	NaN
104	6	25	66	kitchen	sun_aapllqyqlykszopd.tif	1122491.075911	1122491.334502	1122492.076027	7.172305e-01	56	none	NaN	NaN
104	6	26	95	kitchen	sun_aixorpehvfykdynp.tif	1122492.844327	1122493.102922	1122493.842860	7.589300e-01	85	none	NaN	NaN
104	6	27	70	kitchen	sun_abdxkyyxwfskuaqb.tif	1122494.604407	1122494.862998	1122495.602971	8.339890e-01	60	39	1122496.624026	1
104	6	28	75	kitchen	sun_acgtpgfybqjmzeyw.tif	1122497.398843	1122497.657429	1122498.397414	8.423289e-01	65	none	NaN	NaN
104	6	29	94	kitchen	sun_ahywdevtimnqcsln.tif	1122499.158916	1122499.417509	1122500.157643	7.422502e-01	84	none	NaN	NaN
104	6	30	85	kitchen	sun_afuyedyxivkhecmu.tif	1122500.927337	1122501.185918	1122501.926019	7.839497e-01	75	none	NaN	NaN
104	6	31	107	kitchen	sun_axyyrmzcupyhlivc.tif	1122502.695757	1122502.954344	1122503.694483	8.173092e-01	97	none	NaN	NaN
104	6	32	91	kitchen	sun_ahljzhgcdpomplvg.tif	1122504.464172	1122504.722763	1122505.462728	7.255704e-01	81	none	NaN	NaN
104	6	33	96	kitchen	sun_ajcbwwvdlsvjyzje.tif	1122506.224249	1122506.482842	1122507.222817	7.756098e-01	86	37	1122512.624013	0
104	6	34	82	kitchen	sun_aenotlpyftoioydp.tif	1122513.398018	1122513.656611	1122514.396720	7.589300e-01	72	37	1122517.528066	1
104	6	35	102	kitchen	sun_auaiucuqpdausiva.tif	1122518.302877	1122518.561467	1122519.301445	8.006294e-01	92	39	1122560.744070	0
104	6	36	72	kitchen	sun_abpwyqmlzafvklqo.tif	1122561.520688	1122561.779275	1122562.519393	7.255704e-01	62	none	NaN	NaN
104	6	37	84	kitchen	sun_aexklacwqwezaorf.tif	1122563.289110	1122563.547697	1122564.287724	7.672699e-01	74	38	1122604.663918	0
104	6	38	101	kitchen	sun_aqeaevwwwjoqhzvl.tif	1122605.439189	1122605.697784	1122606.437748	7.672699e-01	91	none	NaN	NaN
104	6	39	110	kitchen	sun_azmutvzbxypaceni.tif	1122607.199268	1122607.457856	1122608.197793	6.588513e-01	100	none	NaN	NaN
104	6	40	83	kitchen	sun_aeqdocilnnpuvuhx.tif	1122608.959347	1122609.217934	1122609.957922	8.006294e-01	73	none	NaN	NaN
104	6	41	77	kitchen	sun_acxkpeoqbwcxfvip.tif	1122610.719421	1122610.978014	1122611.718147	8.256491e-01	67	none	NaN	NaN
104	6	42	63	kitchen	labelme_rykdqxenmhulbdn.tif	1122612.487838	1122612.746429	1122613.486371	6.505114e-01	53	none	NaN	NaN
104	6	43	80	kitchen	sun_aegoxogugdkwpmpj.tif	1122614.247915	1122614.506507	1122615.246597	7.088906e-01	70	none	NaN	NaN
104	6	44	79	kitchen	sun_admlmbcdswaszruo.tif	1122616.016337	1122616.274923	1122617.014955	7.922895e-01	69	37	1122699.527870	1
104	6	45	61	kitchen	labelme_brsyyvweiuaazfr.tif	1122700.299821	1122700.558412	1122701.298489	7.005508e-01	51	none	NaN	NaN
104	6	46	97	kitchen	sun_ajkqhtgcbgpcwrwn.tif	1122702.068238	1122702.326831	1122703.066800	7.088906e-01	87	none	NaN	NaN
104	6	47	88	kitchen	sun_agubuxuukhzyzpdp.tif	1122703.828315	1122704.086907	1122704.826864	7.339103e-01	78	none	NaN	NaN
104	6	48	104	kitchen	sun_auticobqsbwgoppi.tif	1122705.588396	1122705.846981	1122706.587008	7.756098e-01	94	none	NaN	NaN
104	6	49	76	kitchen	sun_acwjdupvyjsugpay.tif	1122707.356812	1122707.615399	1122708.355382	7.589300e-01	66	none	NaN	NaN
104	6	50	92	kitchen	sun_ahpczsiumwwocjkv.tif	1122709.116885	1122709.375474	1122710.115509	7.172305e-01	82	none	NaN	NaN
104	6	51	105	kitchen	sun_avszsnwsbuqfgzbn.tif	1122710.876961	1122711.135555	1122711.875510	8.256491e-01	95	none	NaN	NaN
104	6	52	92	kitchen	sun_ahpczsiumwwocjkv.tif	1122712.637045	1122712.895632	1122713.635612	8.339890e-01	82	none	NaN	NaN
104	6	53	83	kitchen	sun_aeqdocilnnpuvuhx.tif	1122714.405457	1122714.664049	1122715.404066	7.339103e-01	73	none	NaN	NaN
104	6	54	94	kitchen	sun_ahywdevtimnqcsln.tif	1122716.165535	1122716.424126	1122717.164202	8.089693e-01	84	none	NaN	NaN
104	6	55	101	kitchen	sun_aqeaevwwwjoqhzvl.tif	1122717.933958	1122718.192541	1122718.932658	7.005508e-01	91	none	NaN	NaN
104	6	56	81	kitchen	sun_aehawpgmrlhlvcow.tif	1122719.702374	1122719.960963	1122720.701044	6.838710e-01	71	none	NaN	NaN
104	6	57	87	kitchen	sun_agorklincwxrdtga.tif	1122721.470792	1122721.729373	1122722.469458	8.089693e-01	77	none	NaN	NaN
104	6	58	89	kitchen	sun_agzzivivdpnawacl.tif	1122723.239210	1122723.497800	1122724.237941	7.255704e-01	79	none	NaN	NaN
104	6	59	74	kitchen	sun_acfmftudsenhrfhy.tif	1122725.007629	1122725.266217	1122726.006213	8.006294e-01	64	none	NaN	NaN
104	6	60	67	kitchen	sun_aarfiyshqohlwkmo.tif	1122726.767706	1122727.026287	1122727.766270	6.922109e-01	57	none	NaN	NaN
104	6	61	63	kitchen	labelme_rykdqxenmhulbdn.tif	1122728.527779	1122728.786374	1122729.526402	6.671912e-01	53	none	NaN	NaN
104	6	62	84	kitchen	sun_aexklacwqwezaorf.tif	1122730.287859	1122730.546445	1122731.286389	6.588513e-01	74	none	NaN	NaN
104	6	63	103	kitchen	sun_aunzlwrbjumxhwdj.tif	1122732.047934	1122732.306522	1122733.046646	6.922109e-01	93	40	1122746.544035	0
104	6	64	91	kitchen	sun_ahljzhgcdpomplvg.tif	1122747.321396	1122747.579981	1122748.320114	7.005508e-01	81	none	NaN	NaN
104	6	65	62	kitchen	labelme_kxvouciolcpqplr.tif	1122749.089812	1122749.348404	1122750.088385	7.422502e-01	52	37	1122798.360127	0
104	6	66	106	kitchen	sun_awcpdzzznmweyyhv.tif	1122799.131046	1122799.389632	1122800.129702	6.671912e-01	96	none	NaN	NaN
104	6	67	68	kitchen	sun_aaxxjlsuzvqlgylf.tif	1122800.891121	1122801.149715	1122801.889821	7.505901e-01	58	none	NaN	NaN
104	6	68	65	kitchen	sun_aamedkxepzlwuxes.tif	1122802.659546	1122802.918134	1122803.658160	7.339103e-01	55	none	NaN	NaN
104	6	69	96	kitchen	sun_ajcbwwvdlsvjyzje.tif	1122804.419618	1122804.678210	1122805.418290	7.005508e-01	86	none	NaN	NaN
104	6	70	110	kitchen	sun_azmutvzbxypaceni.tif	1122806.188039	1122806.446629	1122807.186635	8.423289e-01	100	none	NaN	NaN
104	6	71	77	kitchen	sun_acxkpeoqbwcxfvip.tif	1122807.948118	1122808.206705	1122808.946659	8.506688e-01	67	37	1122811.839893	0
104	6	72	86	kitchen	sun_aggjlwcdjsjcaemh.tif	1122812.611066	1122812.869654	1122813.609618	7.922895e-01	76	none	NaN	NaN
104	6	73	64	kitchen	sun_aadbddgrdsjugojn.tif	1122814.371142	1122814.629735	1122815.369665	6.755311e-01	54	none	NaN	NaN
104	6	74	76	kitchen	sun_acwjdupvyjsugpay.tif	1122816.131218	1122816.389809	1122817.129822	8.173092e-01	66	none	NaN	NaN
104	6	75	104	kitchen	sun_auticobqsbwgoppi.tif	1122817.891295	1122818.149889	1122818.889917	8.506688e-01	94	none	NaN	NaN
104	6	76	95	kitchen	sun_aixorpehvfykdynp.tif	1122819.651373	1122819.909969	1122820.649911	7.505901e-01	85	none	NaN	NaN
104	6	77	109	kitchen	sun_aypmqwcualkenuoe.tif	1122821.411453	1122821.670042	1122822.409973	8.339890e-01	99	none	NaN	NaN
104	6	78	108	kitchen	sun_aymvwlarqodbwuoc.tif	1122823.171524	1122823.430119	1122824.170253	6.755311e-01	98	37	1122859.040030	1
104	6	79	100	kitchen	sun_amjjdeyrggfqgmom.tif	1122859.816154	1122860.074744	1122860.814710	7.672699e-01	90	none	NaN	NaN
104	6	80	99	kitchen	sun_akcjzhbbjlbogpdi.tif	1122861.576233	1122861.834823	1122862.574873	6.588513e-01	89	none	NaN	NaN
104	6	81	70	kitchen	sun_abdxkyyxwfskuaqb.tif	1122863.336314	1122863.594902	1122864.334879	7.172305e-01	60	none	NaN	NaN
104	6	82	75	kitchen	sun_acgtpgfybqjmzeyw.tif	1122865.096389	1122865.354976	1122866.095034	6.671912e-01	65	37	1122902.896136	1
104	6	83	90	kitchen	sun_ahdycvpopffkzzsu.tif	1122903.667925	1122903.926520	1122904.666593	6.755311e-01	80	none	NaN	NaN
104	6	84	97	kitchen	sun_ajkqhtgcbgpcwrwn.tif	1122905.436346	1122905.694937	1122906.434884	6.838710e-01	87	none	NaN	NaN
104	6	85	88	kitchen	sun_agubuxuukhzyzpdp.tif	1122907.196422	1122907.455017	1122908.194964	6.505114e-01	78	none	NaN	NaN
104	6	86	80	kitchen	sun_aegoxogugdkwpmpj.tif	1122908.956500	1122909.215088	1122909.955225	8.089693e-01	70	none	NaN	NaN
104	6	87	82	kitchen	sun_aenotlpyftoioydp.tif	1122910.724919	1122910.983507	1122911.723501	7.255704e-01	72	none	NaN	NaN
104	6	88	102	kitchen	sun_auaiucuqpdausiva.tif	1122912.484999	1122912.743583	1122913.483513	7.922895e-01	92	37	1122930.959979	0
104	6	89	66	kitchen	sun_aapllqyqlykszopd.tif	1122931.737394	1122931.995987	1122932.736046	7.839497e-01	56	none	NaN	NaN
104	6	90	78	kitchen	sun_adgqasybjyktddhj.tif	1122933.497475	1122933.756061	1122934.496089	8.089693e-01	68	none	NaN	NaN
104	6	91	61	kitchen	labelme_brsyyvweiuaazfr.tif	1122935.257553	1122935.516139	1122936.256245	8.173092e-01	51	none	NaN	NaN
104	6	92	79	kitchen	sun_admlmbcdswaszruo.tif	1122937.025969	1122937.284560	1122938.024649	8.423289e-01	69	37	1122952.935854	1
104	6	93	73	kitchen	sun_abrcnpqqhmjwekyf.tif	1122953.709163	1122953.967755	1122954.707687	7.672699e-01	63	none	NaN	NaN
104	6	94	69	kitchen	sun_abdenxonkemggwsq.tif	1122955.469237	1122955.727826	1122956.467846	6.755311e-01	59	none	NaN	NaN
104	6	95	98	kitchen	sun_akchetnepxlcxhsu.tif	1122957.229314	1122957.487906	1122958.227899	7.756098e-01	88	none	NaN	NaN
104	6	96	107	kitchen	sun_axyyrmzcupyhlivc.tif	1122958.989397	1122959.247983	1122959.988022	7.839497e-01	97	none	NaN	NaN
104	6	97	71	kitchen	sun_abftihopvusyfakt.tif	1122960.749462	1122961.008057	1122961.748129	7.505901e-01	61	none	NaN	NaN
104	6	98	85	kitchen	sun_afuyedyxivkhecmu.tif	1122962.509547	1122962.768136	1122963.508115	7.339103e-01	75	none	NaN	NaN
104	6	99	93	kitchen	sun_ahspylgoovwmwvgk.tif	1122964.269620	1122964.528213	1122965.268188	7.422502e-01	83	none	NaN	NaN
104	6	100	72	kitchen	sun_abpwyqmlzafvklqo.tif	1122966.029698	1122966.288284	1122967.028377	7.422502e-01	62	none	NaN	NaN
104	7	1	30	bathroom	sun_ajlawzvmubibwbpy.tif	1123027.198622	1123027.457208	1123028.147137	6.671912e-01	20	37	1123043.703879	1
104	7	2	24	bathroom	sun_agrwbmhcpmfuwmsg.tif	1123044.482411	1123044.740999	1123045.430895	7.422502e-01	14	none	NaN	NaN
104	7	3	18	bathroom	sun_acgyywnybuveqsro.tif	1123046.192435	1123046.451026	1123047.140956	7.672699e-01	8	none	NaN	NaN
104	7	4	11	bathroom	labelme_sfxiulhjbhlyiyt.tif	1123047.902466	1123048.161053	1123048.851008	7.505901e-01	1	none	NaN	NaN
104	7	5	36	bathroom	sun_ambriybtogmepttm.tif	1123049.612491	1123049.871081	1123050.561034	7.839497e-01	26	none	NaN	NaN
104	7	6	59	bathroom	sun_axyrejkiiaqiurjk.tif	1123051.322518	1123051.581109	1123052.271092	8.006294e-01	49	39	1123054.735877	1
104	7	7	41	bathroom	sun_aoybiabnpadelefl.tif	1123055.509999	1123055.768591	1123056.458527	7.005508e-01	31	none	NaN	NaN
104	7	8	27	bathroom	sun_ahcvzmoyaycdoftf.tif	1123057.220030	1123057.478615	1123058.168577	7.339103e-01	17	none	NaN	NaN
104	7	9	33	bathroom	sun_aljolscmmzydegqp.tif	1123058.930049	1123059.188643	1123059.878537	7.422502e-01	23	none	NaN	NaN
104	7	10	19	bathroom	sun_aclfzgynxzxlbepz.tif	1123060.640082	1123060.898668	1123061.588702	6.755311e-01	9	none	NaN	NaN
104	7	11	50	bathroom	sun_aspsyogrekjtfozg.tif	1123062.350110	1123062.608699	1123063.298739	7.505901e-01	40	none	NaN	NaN
104	7	12	25	bathroom	sun_agyqfjcfkdcydepw.tif	1123064.068479	1123064.327065	1123065.017111	6.505114e-01	15	37	1123066.255968	1
104	7	13	48	bathroom	sun_aqrpegblszgcoujh.tif	1123067.029744	1123067.288333	1123067.978215	8.006294e-01	38	none	NaN	NaN
104	7	14	52	bathroom	sun_aunuadmjocsddsrl.tif	1123068.739775	1123068.998358	1123069.688311	8.339890e-01	42	none	NaN	NaN
104	7	15	45	bathroom	sun_apkxzenqapsujocq.tif	1123070.449796	1123070.708387	1123071.398534	7.922895e-01	35	none	NaN	NaN
104	7	16	54	bathroom	sun_auzqhkafidnkrwmo.tif	1123072.168163	1123072.426754	1123073.116830	6.838710e-01	44	none	NaN	NaN
104	7	17	43	bathroom	sun_apjevzvycyhuqghb.tif	1123073.886535	1123074.145123	1123074.835195	6.922109e-01	33	37	1123075.695842	1
104	7	18	23	bathroom	sun_aghyqhbptboemmoq.tif	1123076.472430	1123076.731019	1123077.420988	7.589300e-01	13	none	NaN	NaN
104	7	19	57	bathroom	sun_axldvoqbuvuggfmq.tif	1123078.182472	1123078.441049	1123079.131157	7.505901e-01	47	none	NaN	NaN
104	7	20	13	bathroom	sun_aavhrsfjbserjtht.tif	1123079.900828	1123080.159413	1123080.849386	8.173092e-01	3	none	NaN	NaN
104	7	21	28	bathroom	sun_ahijqszoswveeyji.tif	1123081.610850	1123081.869440	1123082.559432	7.339103e-01	18	37	1123084.159857	0
104	7	22	51	bathroom	sun_atstyziqcmkahyxk.tif	1123084.930810	1123085.189398	1123085.879439	7.255704e-01	41	none	NaN	NaN
104	7	23	55	bathroom	sun_avhrdrntsqrjzccq.tif	1123086.640836	1123086.899429	1123087.589427	7.088906e-01	45	none	NaN	NaN
104	7	24	40	bathroom	sun_aofnryafpsjimzsb.tif	1123088.359203	1123088.617792	1123089.307734	6.922109e-01	30	none	NaN	NaN
104	7	25	44	bathroom	sun_apkruvsevgegsdwp.tif	1123090.077572	1123090.336166	1123091.026215	8.089693e-01	34	none	NaN	NaN
104	7	26	42	bathroom	sun_apeeialkgkuxddgh.tif	1123091.795941	1123092.054533	1123092.744629	8.173092e-01	32	none	NaN	NaN
104	7	27	20	bathroom	sun_afcoljnjfoxjtgja.tif	1123093.514311	1123093.772900	1123094.462885	7.172305e-01	10	none	NaN	NaN
104	7	28	17	bathroom	sun_acegryoqftbzowsg.tif	1123095.232678	1123095.491269	1123096.181259	8.256491e-01	7	none	NaN	NaN
104	7	29	37	bathroom	sun_amzlamotzwfkwjco.tif	1123096.951051	1123097.209637	1123097.899646	6.922109e-01	27	none	NaN	NaN
104	7	30	16	bathroom	sun_acduarbnmmoglmiv.tif	1123098.661069	1123098.919666	1123099.609590	6.838710e-01	6	none	NaN	NaN
104	7	31	34	bathroom	sun_alkosphxlxwjwgjd.tif	1123100.371103	1123100.629695	1123101.319665	8.339890e-01	24	none	NaN	NaN
104	7	32	49	bathroom	sun_asfwthctfqerjvxr.tif	1123102.081132	1123102.339720	1123103.029651	7.672699e-01	39	none	NaN	NaN
104	7	33	31	bathroom	sun_akiytfaagpdsphgz.tif	1123103.791158	1123104.049750	1123104.739809	7.922895e-01	21	none	NaN	NaN
104	7	34	53	bathroom	sun_ausgutylgojavyoq.tif	1123105.509526	1123105.768113	1123106.458171	7.088906e-01	43	37	1123108.879914	0
104	7	35	39	bathroom	sun_anryaplzeujmzfkd.tif	1123109.655303	1123109.913887	1123110.603971	8.423289e-01	29	none	NaN	NaN
104	7	36	21	bathroom	sun_aggnnqpdorgxpvce.tif	1123111.373671	1123111.632255	1123112.322243	7.922895e-01	11	37	1123113.407722	0
104	7	37	56	bathroom	sun_awnqiikzaispgmwo.tif	1123114.184787	1123114.443371	1123115.133439	7.339103e-01	46	none	NaN	NaN
104	7	38	14	bathroom	sun_abapwbhyhkfixyex.tif	1123115.903156	1123116.161745	1123116.851700	8.173092e-01	4	none	NaN	NaN
104	7	39	60	bathroom	sun_azqyogdvyhahyram.tif	1123117.613180	1123117.871770	1123118.561861	7.589300e-01	50	none	NaN	NaN
104	7	40	38	bathroom	sun_anhioqovhscjqqwb.tif	1123119.331555	1123119.590137	1123120.280045	8.256491e-01	28	none	NaN	NaN
104	7	41	47	bathroom	sun_apynckhmoftszqoq.tif	1123121.041579	1123121.300172	1123121.990254	6.505114e-01	37	none	NaN	NaN
104	7	42	12	bathroom	sun_aapitsgbtktqubfy.tif	1123122.759948	1123123.018537	1123123.708490	8.006294e-01	2	none	NaN	NaN
104	7	43	22	bathroom	sun_agguqiubmwhqqunb.tif	1123124.469976	1123124.728563	1123125.418600	7.422502e-01	12	37	1123126.959726	1
104	7	44	46	bathroom	sun_apmqjbnwghzuhhzh.tif	1123127.731540	1123127.990132	1123128.680141	8.339890e-01	36	none	NaN	NaN
104	7	45	58	bathroom	sun_axxbkopsgyouuebh.tif	1123129.441569	1123129.700159	1123130.390216	8.256491e-01	48	none	NaN	NaN
104	7	46	35	bathroom	sun_alotolagknyrgtsk.tif	1123131.159940	1123131.418528	1123132.108619	8.423289e-01	25	none	NaN	NaN
104	7	47	26	bathroom	sun_ahaulkltgpkeeemi.tif	1123132.878306	1123133.136897	1123133.826873	8.089693e-01	16	none	NaN	NaN
104	7	48	29	bathroom	sun_ahqjwnzgolcaoidx.tif	1123134.588332	1123134.846918	1123135.536858	6.671912e-01	19	none	NaN	NaN
104	7	49	32	bathroom	sun_aleqenyvunhactkl.tif	1123136.298359	1123136.556947	1123137.246866	7.589300e-01	22	none	NaN	NaN
104	7	50	15	bathroom	sun_abjtwfukuwddzted.tif	1123138.008383	1123138.266974	1123138.957031	6.588513e-01	5	none	NaN	NaN
104	7	51	16	bathroom	sun_acduarbnmmoglmiv.tif	1123139.726754	1123139.985345	1123140.675397	7.172305e-01	6	none	NaN	NaN
104	7	52	53	bathroom	sun_ausgutylgojavyoq.tif	1123141.445127	1123141.703718	1123142.393824	8.339890e-01	43	none	NaN	NaN
104	7	53	23	bathroom	sun_aghyqhbptboemmoq.tif	1123143.163492	1123143.422081	1123144.112155	7.756098e-01	13	none	NaN	NaN
104	7	54	17	bathroom	sun_acegryoqftbzowsg.tif	1123144.881863	1123145.140451	1123145.830461	6.671912e-01	7	none	NaN	NaN
104	7	55	32	bathroom	sun_aleqenyvunhactkl.tif	1123146.591891	1123146.850476	1123147.540384	8.423289e-01	22	37	1123148.511976	1
104	7	56	37	bathroom	sun_amzlamotzwfkwjco.tif	1123149.286224	1123149.544812	1123150.234713	8.089693e-01	27	none	NaN	NaN
104	7	57	59	bathroom	sun_axyrejkiiaqiurjk.tif	1123150.996250	1123151.254844	1123151.944840	7.505901e-01	49	39	1123153.240073	1
104	7	58	41	bathroom	sun_aoybiabnpadelefl.tif	1123154.015907	1123154.274500	1123154.964488	7.005508e-01	31	none	NaN	NaN
104	7	59	26	bathroom	sun_ahaulkltgpkeeemi.tif	1123155.734277	1123155.992865	1123156.682859	8.089693e-01	16	none	NaN	NaN
104	7	60	55	bathroom	sun_avhrdrntsqrjzccq.tif	1123157.452646	1123157.711232	1123158.401158	6.755311e-01	45	none	NaN	NaN
104	7	61	40	bathroom	sun_aofnryafpsjimzsb.tif	1123159.162673	1123159.421263	1123160.111233	7.339103e-01	30	none	NaN	NaN
104	7	62	33	bathroom	sun_aljolscmmzydegqp.tif	1123160.872702	1123161.131290	1123161.821360	6.922109e-01	23	none	NaN	NaN
104	7	63	24	bathroom	sun_agrwbmhcpmfuwmsg.tif	1123162.591070	1123162.849661	1123163.539695	7.672699e-01	14	none	NaN	NaN
104	7	64	39	bathroom	sun_anryaplzeujmzfkd.tif	1123164.309437	1123164.568030	1123165.258032	8.506688e-01	29	none	NaN	NaN
104	7	65	38	bathroom	sun_anhioqovhscjqqwb.tif	1123166.019465	1123166.278054	1123166.967996	6.588513e-01	28	none	NaN	NaN
104	7	66	15	bathroom	sun_abjtwfukuwddzted.tif	1123167.729492	1123167.988083	1123168.678046	6.755311e-01	5	none	NaN	NaN
104	7	67	42	bathroom	sun_apeeialkgkuxddgh.tif	1123169.439521	1123169.698113	1123170.388192	7.839497e-01	32	none	NaN	NaN
104	7	68	11	bathroom	labelme_sfxiulhjbhlyiyt.tif	1123171.157887	1123171.416479	1123172.106432	8.506688e-01	1	none	NaN	NaN
104	7	69	12	bathroom	sun_aapitsgbtktqubfy.tif	1123172.867916	1123173.126508	1123173.816561	6.838710e-01	2	none	NaN	NaN
104	7	70	43	bathroom	sun_apjevzvycyhuqghb.tif	1123174.586286	1123174.844874	1123175.534970	7.255704e-01	33	none	NaN	NaN
104	7	71	47	bathroom	sun_apynckhmoftszqoq.tif	1123176.304653	1123176.563238	1123177.253216	8.006294e-01	37	37	1123178.023854	1
104	7	72	34	bathroom	sun_alkosphxlxwjwgjd.tif	1123178.798790	1123179.057381	1123179.747368	7.589300e-01	24	none	NaN	NaN
104	7	73	30	bathroom	sun_ajlawzvmubibwbpy.tif	1123180.508825	1123180.767410	1123181.457388	7.172305e-01	20	none	NaN	NaN
104	7	74	56	bathroom	sun_awnqiikzaispgmwo.tif	1123182.227187	1123182.485779	1123183.175748	6.588513e-01	46	none	NaN	NaN
104	7	75	36	bathroom	sun_ambriybtogmepttm.tif	1123183.937217	1123184.195802	1123184.885762	8.173092e-01	26	none	NaN	NaN
104	7	76	46	bathroom	sun_apmqjbnwghzuhhzh.tif	1123185.647241	1123185.905833	1123186.595864	6.671912e-01	36	none	NaN	NaN
104	7	77	14	bathroom	sun_abapwbhyhkfixyex.tif	1123187.365612	1123187.624197	1123188.314249	7.756098e-01	4	none	NaN	NaN
104	7	78	19	bathroom	sun_aclfzgynxzxlbepz.tif	1123189.083982	1123189.342566	1123190.032622	7.005508e-01	9	none	NaN	NaN
104	7	79	25	bathroom	sun_agyqfjcfkdcydepw.tif	1123190.802347	1123191.060936	1123191.750886	7.005508e-01	15	none	NaN	NaN
104	7	80	13	bathroom	sun_aavhrsfjbserjtht.tif	1123192.512376	1123192.770963	1123193.460875	7.255704e-01	3	none	NaN	NaN
104	7	81	60	bathroom	sun_azqyogdvyhahyram.tif	1123194.222406	1123194.480989	1123195.170891	7.422502e-01	50	none	NaN	NaN
104	7	82	50	bathroom	sun_aspsyogrekjtfozg.tif	1123195.932434	1123196.191021	1123196.881016	6.505114e-01	40	37	1123198.071904	0
104	7	83	22	bathroom	sun_agguqiubmwhqqunb.tif	1123198.843632	1123199.102238	1123199.792212	6.588513e-01	12	none	NaN	NaN
104	7	84	20	bathroom	sun_afcoljnjfoxjtgja.tif	1123200.553678	1123200.812269	1123201.502301	8.256491e-01	10	none	NaN	NaN
104	7	85	18	bathroom	sun_acgyywnybuveqsro.tif	1123202.272045	1123202.530609	1123203.220639	6.755311e-01	8	none	NaN	NaN
104	7	86	58	bathroom	sun_axxbkopsgyouuebh.tif	1123203.990411	1123204.249003	1123204.938954	7.756098e-01	48	none	NaN	NaN
104	7	87	35	bathroom	sun_alotolagknyrgtsk.tif	1123205.700443	1123205.959029	1123206.648932	7.255704e-01	25	none	NaN	NaN
104	7	88	44	bathroom	sun_apkruvsevgegsdwp.tif	1123207.410465	1123207.669057	1123208.359056	7.005508e-01	34	none	NaN	NaN
104	7	89	48	bathroom	sun_aqrpegblszgcoujh.tif	1123209.120493	1123209.379087	1123210.069176	7.839497e-01	38	none	NaN	NaN
104	7	90	45	bathroom	sun_apkxzenqapsujocq.tif	1123210.838863	1123211.097454	1123211.787394	7.839497e-01	35	none	NaN	NaN
104	7	91	57	bathroom	sun_axldvoqbuvuggfmq.tif	1123212.548892	1123212.807485	1123213.497556	7.088906e-01	47	37	1123214.664015	0
104	7	92	51	bathroom	sun_atstyziqcmkahyxk.tif	1123215.435082	1123215.693668	1123216.383590	7.172305e-01	41	none	NaN	NaN
104	7	93	31	bathroom	sun_akiytfaagpdsphgz.tif	1123217.145113	1123217.403700	1123218.093630	7.922895e-01	21	none	NaN	NaN
104	7	94	29	bathroom	sun_ahqjwnzgolcaoidx.tif	1123218.855135	1123219.113724	1123219.803715	8.256491e-01	19	none	NaN	NaN
104	7	95	54	bathroom	sun_auzqhkafidnkrwmo.tif	1123220.565163	1123220.823754	1123221.513779	8.423289e-01	44	37	1123222.415910	1
104	7	96	49	bathroom	sun_asfwthctfqerjvxr.tif	1123223.192767	1123223.451362	1123224.141242	7.756098e-01	39	none	NaN	NaN
104	7	97	52	bathroom	sun_aunuadmjocsddsrl.tif	1123224.902794	1123225.161382	1123225.851466	7.672699e-01	42	none	NaN	NaN
104	7	98	28	bathroom	sun_ahijqszoswveeyji.tif	1123226.621167	1123226.879753	1123227.569777	6.838710e-01	18	none	NaN	NaN
104	7	99	21	bathroom	sun_aggnnqpdorgxpvce.tif	1123228.339534	1123228.598123	1123229.288198	7.088906e-01	11	37	1123230.080065	1
104	7	100	27	bathroom	sun_ahcvzmoyaycdoftf.tif	1123230.850352	1123231.108942	1123231.798919	7.672699e-01	17	none	NaN	NaN
104	8	1	66	kitchen	sun_aapllqyqlykszopd.tif	1123362.380649	1123362.639238	1123363.329338	6.755311e-01	56	none	NaN	NaN
104	8	2	91	kitchen	sun_ahljzhgcdpomplvg.tif	1123364.099019	1123364.357607	1123365.047535	7.589300e-01	81	37	1123366.088002	1
104	8	3	104	kitchen	sun_auticobqsbwgoppi.tif	1123366.860087	1123367.118674	1123367.808748	8.506688e-01	94	none	NaN	NaN
104	8	4	109	kitchen	sun_aypmqwcualkenuoe.tif	1123368.578457	1123368.837050	1123369.526964	7.756098e-01	99	none	NaN	NaN
104	8	5	81	kitchen	sun_aehawpgmrlhlvcow.tif	1123370.288484	1123370.547074	1123371.237138	7.088906e-01	71	37	1123372.424012	1
104	8	6	101	kitchen	sun_aqeaevwwwjoqhzvl.tif	1123373.199699	1123373.458293	1123374.148314	7.255704e-01	91	none	NaN	NaN
104	8	7	85	kitchen	sun_afuyedyxivkhecmu.tif	1123374.918071	1123375.176659	1123375.866757	8.256491e-01	75	none	NaN	NaN
104	8	8	83	kitchen	sun_aeqdocilnnpuvuhx.tif	1123376.636437	1123376.895028	1123377.585085	7.005508e-01	73	none	NaN	NaN
104	8	9	80	kitchen	sun_aegoxogugdkwpmpj.tif	1123378.354809	1123378.613398	1123379.303397	8.089693e-01	70	none	NaN	NaN
104	8	10	86	kitchen	sun_aggjlwcdjsjcaemh.tif	1123380.064836	1123380.323425	1123381.013375	6.671912e-01	76	37	1123382.008045	0
104	8	11	65	kitchen	sun_aamedkxepzlwuxes.tif	1123382.784193	1123383.042787	1123383.732721	7.005508e-01	55	none	NaN	NaN
104	8	12	98	kitchen	sun_akchetnepxlcxhsu.tif	1123384.494218	1123384.752814	1123385.442747	7.005508e-01	88	none	NaN	NaN
104	8	13	77	kitchen	sun_acxkpeoqbwcxfvip.tif	1123386.204250	1123386.462841	1123387.152759	8.006294e-01	67	none	NaN	NaN
104	8	14	96	kitchen	sun_ajcbwwvdlsvjyzje.tif	1123387.914278	1123388.172868	1123388.862761	8.256491e-01	86	none	NaN	NaN
104	8	15	84	kitchen	sun_aexklacwqwezaorf.tif	1123389.624307	1123389.882895	1123390.572786	7.255704e-01	74	37	1123391.792227	0
104	8	16	79	kitchen	sun_admlmbcdswaszruo.tif	1123392.568890	1123392.827479	1123393.517392	7.505901e-01	69	none	NaN	NaN
104	8	17	89	kitchen	sun_agzzivivdpnawacl.tif	1123394.278919	1123394.537508	1123395.227552	8.423289e-01	79	37	1123396.360194	1
104	8	18	92	kitchen	sun_ahpczsiumwwocjkv.tif	1123397.131742	1123397.390327	1123398.080277	8.423289e-01	82	none	NaN	NaN
104	8	19	93	kitchen	sun_ahspylgoovwmwvgk.tif	1123398.841769	1123399.100363	1123399.790357	7.756098e-01	83	37	1123402.536019	0
104	8	20	87	kitchen	sun_agorklincwxrdtga.tif	1123403.312869	1123403.571457	1123404.261443	7.839497e-01	77	37	1123405.056403	1
104	8	21	68	kitchen	sun_aaxxjlsuzvqlgylf.tif	1123405.832034	1123406.090621	1123406.780690	6.838710e-01	58	none	NaN	NaN
104	8	22	76	kitchen	sun_acwjdupvyjsugpay.tif	1123407.550400	1123407.808987	1123408.498869	6.588513e-01	66	none	NaN	NaN
104	8	23	67	kitchen	sun_aarfiyshqohlwkmo.tif	1123409.260426	1123409.519014	1123410.209101	6.588513e-01	57	none	NaN	NaN
104	8	24	97	kitchen	sun_ajkqhtgcbgpcwrwn.tif	1123410.978796	1123411.237382	1123411.927321	7.505901e-01	87	none	NaN	NaN
104	8	25	110	kitchen	sun_azmutvzbxypaceni.tif	1123412.688826	1123412.947413	1123413.637298	7.172305e-01	100	none	NaN	NaN
104	8	26	105	kitchen	sun_avszsnwsbuqfgzbn.tif	1123414.398855	1123414.657439	1123415.347427	7.839497e-01	95	none	NaN	NaN
104	8	27	70	kitchen	sun_abdxkyyxwfskuaqb.tif	1123416.117216	1123416.375812	1123417.065792	8.506688e-01	60	none	NaN	NaN
104	8	28	69	kitchen	sun_abdenxonkemggwsq.tif	1123417.835589	1123418.094179	1123418.784267	7.505901e-01	59	none	NaN	NaN
104	8	29	64	kitchen	sun_aadbddgrdsjugojn.tif	1123419.553957	1123419.812547	1123420.502565	8.423289e-01	54	none	NaN	NaN
104	8	30	72	kitchen	sun_abpwyqmlzafvklqo.tif	1123421.272328	1123421.530918	1123422.220883	7.672699e-01	62	none	NaN	NaN
104	8	31	71	kitchen	sun_abftihopvusyfakt.tif	1123422.982357	1123423.240944	1123423.930840	7.589300e-01	61	none	NaN	NaN
104	8	32	108	kitchen	sun_aymvwlarqodbwuoc.tif	1123424.692384	1123424.950971	1123425.640913	8.339890e-01	98	none	NaN	NaN
104	8	33	102	kitchen	sun_auaiucuqpdausiva.tif	1123426.402412	1123426.661001	1123427.350970	7.339103e-01	92	none	NaN	NaN
104	8	34	75	kitchen	sun_acgtpgfybqjmzeyw.tif	1123428.120780	1123428.379366	1123429.069268	7.922895e-01	65	none	NaN	NaN
104	8	35	100	kitchen	sun_amjjdeyrggfqgmom.tif	1123429.830804	1123430.089396	1123430.779430	8.256491e-01	90	none	NaN	NaN
104	8	36	74	kitchen	sun_acfmftudsenhrfhy.tif	1123431.549176	1123431.807768	1123432.497775	7.672699e-01	64	none	NaN	NaN
104	8	37	73	kitchen	sun_abrcnpqqhmjwekyf.tif	1123433.259204	1123433.517791	1123434.207895	8.006294e-01	63	none	NaN	NaN
104	8	38	94	kitchen	sun_ahywdevtimnqcsln.tif	1123434.977567	1123435.236160	1123435.926205	8.173092e-01	84	none	NaN	NaN
104	8	39	106	kitchen	sun_awcpdzzznmweyyhv.tif	1123436.695939	1123436.954530	1123437.644479	6.922109e-01	96	none	NaN	NaN
104	8	40	103	kitchen	sun_aunzlwrbjumxhwdj.tif	1123438.405967	1123438.664556	1123439.354511	7.172305e-01	93	none	NaN	NaN
104	8	41	99	kitchen	sun_akcjzhbbjlbogpdi.tif	1123440.115992	1123440.374580	1123441.064607	7.422502e-01	89	none	NaN	NaN
104	8	42	63	kitchen	labelme_rykdqxenmhulbdn.tif	1123441.826026	1123442.084615	1123442.774668	8.256491e-01	53	none	NaN	NaN
104	8	43	61	kitchen	labelme_brsyyvweiuaazfr.tif	1123443.544387	1123443.802981	1123444.493034	7.505901e-01	51	none	NaN	NaN
104	8	44	88	kitchen	sun_agubuxuukhzyzpdp.tif	1123445.262759	1123445.521346	1123446.211249	7.589300e-01	78	none	NaN	NaN
104	8	45	95	kitchen	sun_aixorpehvfykdynp.tif	1123446.972787	1123447.231377	1123447.921456	7.088906e-01	85	none	NaN	NaN
104	8	46	62	kitchen	labelme_kxvouciolcpqplr.tif	1123448.691158	1123448.949749	1123449.639653	7.839497e-01	52	none	NaN	NaN
104	8	47	78	kitchen	sun_adgqasybjyktddhj.tif	1123450.401189	1123450.659772	1123451.349764	8.423289e-01	68	none	NaN	NaN
104	8	48	82	kitchen	sun_aenotlpyftoioydp.tif	1123452.111214	1123452.369801	1123453.059922	6.755311e-01	72	37	1123453.776058	1
104	8	49	90	kitchen	sun_ahdycvpopffkzzsu.tif	1123454.546950	1123454.805545	1123455.495505	7.422502e-01	80	none	NaN	NaN
104	8	50	107	kitchen	sun_axyyrmzcupyhlivc.tif	1123456.265330	1123456.523915	1123457.213878	6.838710e-01	97	none	NaN	NaN
104	8	51	109	kitchen	sun_aypmqwcualkenuoe.tif	1123457.975358	1123458.233945	1123458.924023	7.756098e-01	99	none	NaN	NaN
104	8	52	75	kitchen	sun_acgtpgfybqjmzeyw.tif	1123459.693726	1123459.952310	1123460.642370	7.172305e-01	65	none	NaN	NaN
104	8	53	76	kitchen	sun_acwjdupvyjsugpay.tif	1123461.412097	1123461.670685	1123462.360579	6.755311e-01	66	none	NaN	NaN
104	8	54	66	kitchen	sun_aapllqyqlykszopd.tif	1123463.122122	1123463.380708	1123464.070754	6.505114e-01	56	none	NaN	NaN
104	8	55	107	kitchen	sun_axyyrmzcupyhlivc.tif	1123464.840486	1123465.099075	1123465.789081	7.005508e-01	97	37	1123466.471959	1
104	8	56	64	kitchen	sun_aadbddgrdsjugojn.tif	1123467.242871	1123467.501460	1123468.191474	8.256491e-01	54	37	1123468.831925	1
104	8	57	101	kitchen	sun_aqeaevwwwjoqhzvl.tif	1123469.603542	1123469.862133	1123470.552218	6.922109e-01	91	none	NaN	NaN
104	8	58	79	kitchen	sun_admlmbcdswaszruo.tif	1123471.313573	1123471.572160	1123472.262079	7.255704e-01	69	none	NaN	NaN
104	8	59	61	kitchen	labelme_brsyyvweiuaazfr.tif	1123473.023594	1123473.282187	1123473.972282	7.672699e-01	51	none	NaN	NaN
104	8	60	92	kitchen	sun_ahpczsiumwwocjkv.tif	1123474.741966	1123475.000552	1123475.690540	7.589300e-01	82	none	NaN	NaN
104	8	61	63	kitchen	labelme_rykdqxenmhulbdn.tif	1123476.451993	1123476.710583	1123477.400503	7.339103e-01	53	none	NaN	NaN
104	8	62	93	kitchen	sun_ahspylgoovwmwvgk.tif	1123478.162019	1123478.420613	1123479.110580	7.255704e-01	83	none	NaN	NaN
104	8	63	106	kitchen	sun_awcpdzzznmweyyhv.tif	1123479.872052	1123480.130636	1123480.820618	6.922109e-01	96	none	NaN	NaN
104	8	64	83	kitchen	sun_aeqdocilnnpuvuhx.tif	1123481.582076	1123481.840670	1123482.530665	6.838710e-01	73	none	NaN	NaN
104	8	65	70	kitchen	sun_abdxkyyxwfskuaqb.tif	1123483.292107	1123483.550689	1123484.240628	7.005508e-01	60	none	NaN	NaN
104	8	66	84	kitchen	sun_aexklacwqwezaorf.tif	1123485.010473	1123485.269062	1123485.959087	7.756098e-01	74	none	NaN	NaN
104	8	67	78	kitchen	sun_adgqasybjyktddhj.tif	1123486.728844	1123486.987431	1123487.677344	7.922895e-01	68	none	NaN	NaN
104	8	68	77	kitchen	sun_acxkpeoqbwcxfvip.tif	1123488.438867	1123488.697458	1123489.387351	7.839497e-01	67	none	NaN	NaN
104	8	69	74	kitchen	sun_acfmftudsenhrfhy.tif	1123490.148897	1123490.407486	1123491.097447	8.089693e-01	64	none	NaN	NaN
104	8	70	94	kitchen	sun_ahywdevtimnqcsln.tif	1123491.858927	1123492.117515	1123492.807616	7.088906e-01	84	37	1123493.656094	0
104	8	71	95	kitchen	sun_aixorpehvfykdynp.tif	1123494.428135	1123494.686727	1123495.376722	6.671912e-01	85	37	1123496.135997	0
104	8	72	73	kitchen	sun_abrcnpqqhmjwekyf.tif	1123496.913932	1123497.172520	1123497.862616	8.006294e-01	63	37	1123498.527959	1
104	8	73	88	kitchen	sun_agubuxuukhzyzpdp.tif	1123499.299622	1123499.558222	1123500.248105	8.173092e-01	78	none	NaN	NaN
104	8	74	98	kitchen	sun_akchetnepxlcxhsu.tif	1123501.009652	1123501.268246	1123501.958164	8.006294e-01	88	none	NaN	NaN
104	8	75	80	kitchen	sun_aegoxogugdkwpmpj.tif	1123502.719687	1123502.978274	1123503.668268	6.671912e-01	70	37	1123504.328051	0
104	8	76	65	kitchen	sun_aamedkxepzlwuxes.tif	1123505.105400	1123505.363972	1123506.054078	7.672699e-01	55	none	NaN	NaN
104	8	77	103	kitchen	sun_aunzlwrbjumxhwdj.tif	1123506.823752	1123507.082342	1123507.772261	7.422502e-01	93	none	NaN	NaN
104	8	78	86	kitchen	sun_aggjlwcdjsjcaemh.tif	1123508.533778	1123508.792369	1123509.482458	8.089693e-01	76	none	NaN	NaN
104	8	79	71	kitchen	sun_abftihopvusyfakt.tif	1123510.252145	1123510.510736	1123511.200620	7.422502e-01	61	none	NaN	NaN
104	8	80	81	kitchen	sun_aehawpgmrlhlvcow.tif	1123511.962170	1123512.220759	1123512.910674	8.339890e-01	71	none	NaN	NaN
104	8	81	96	kitchen	sun_ajcbwwvdlsvjyzje.tif	1123513.672202	1123513.930795	1123514.620725	6.588513e-01	86	none	NaN	NaN
104	8	82	102	kitchen	sun_auaiucuqpdausiva.tif	1123515.390568	1123515.649173	1123516.339121	6.922109e-01	92	none	NaN	NaN
104	8	83	62	kitchen	labelme_kxvouciolcpqplr.tif	1123517.100601	1123517.359187	1123518.049102	7.339103e-01	52	none	NaN	NaN
104	8	84	108	kitchen	sun_aymvwlarqodbwuoc.tif	1123518.810625	1123519.069214	1123519.759239	6.588513e-01	98	none	NaN	NaN
104	8	85	72	kitchen	sun_abpwyqmlzafvklqo.tif	1123520.528993	1123520.787584	1123521.477570	8.173092e-01	62	none	NaN	NaN
104	8	86	87	kitchen	sun_agorklincwxrdtga.tif	1123522.239021	1123522.497613	1123523.187516	7.339103e-01	77	none	NaN	NaN
104	8	87	90	kitchen	sun_ahdycvpopffkzzsu.tif	1123523.949049	1123524.207637	1123524.897540	7.922895e-01	80	none	NaN	NaN
104	8	88	82	kitchen	sun_aenotlpyftoioydp.tif	1123525.659074	1123525.917664	1123526.607700	6.838710e-01	72	none	NaN	NaN
104	8	89	100	kitchen	sun_amjjdeyrggfqgmom.tif	1123527.377448	1123527.636036	1123528.326097	7.172305e-01	90	37	1123529.536087	0
104	8	90	67	kitchen	sun_aarfiyshqohlwkmo.tif	1123530.313691	1123530.572272	1123531.262276	7.088906e-01	57	none	NaN	NaN
104	8	91	104	kitchen	sun_auticobqsbwgoppi.tif	1123532.032054	1123532.290641	1123532.980651	8.089693e-01	94	none	NaN	NaN
104	8	92	110	kitchen	sun_azmutvzbxypaceni.tif	1123533.742085	1123534.000666	1123534.690563	7.672699e-01	100	none	NaN	NaN
104	8	93	105	kitchen	sun_avszsnwsbuqfgzbn.tif	1123535.452113	1123535.710701	1123536.400798	8.173092e-01	95	none	NaN	NaN
104	8	94	97	kitchen	sun_ajkqhtgcbgpcwrwn.tif	1123537.170479	1123537.429069	1123538.119017	8.339890e-01	87	none	NaN	NaN
104	8	95	85	kitchen	sun_afuyedyxivkhecmu.tif	1123538.880509	1123539.139098	1123539.829134	8.339890e-01	75	none	NaN	NaN
104	8	96	89	kitchen	sun_agzzivivdpnawacl.tif	1123540.598876	1123540.857464	1123541.547388	7.922895e-01	79	none	NaN	NaN
104	8	97	91	kitchen	sun_ahljzhgcdpomplvg.tif	1123542.308905	1123542.567491	1123543.257554	6.671912e-01	81	none	NaN	NaN
104	8	98	99	kitchen	sun_akcjzhbbjlbogpdi.tif	1123544.027275	1123544.285862	1123544.975812	6.505114e-01	89	none	NaN	NaN
104	8	99	68	kitchen	sun_aaxxjlsuzvqlgylf.tif	1123545.737300	1123545.995892	1123546.685824	6.755311e-01	58	none	NaN	NaN
104	8	100	69	kitchen	sun_abdenxonkemggwsq.tif	1123547.447326	1123547.705917	1123548.395805	6.505114e-01	59	none	NaN	NaN
104	9	1	11	bathroom	labelme_sfxiulhjbhlyiyt.tif	1123563.029434	1123563.288026	1123563.936230	7.756098e-01	1	none	NaN	NaN
104	9	2	24	bathroom	sun_agrwbmhcpmfuwmsg.tif	1123564.697749	1123564.956343	1123565.604573	8.506688e-01	14	none	NaN	NaN
104	9	3	60	bathroom	sun_azqyogdvyhahyram.tif	1123566.366072	1123566.624664	1123567.273063	7.005508e-01	50	none	NaN	NaN
104	9	4	19	bathroom	sun_aclfzgynxzxlbepz.tif	1123568.042728	1123568.301316	1123568.949534	7.922895e-01	9	none	NaN	NaN
104	9	5	14	bathroom	sun_abapwbhyhkfixyex.tif	1123569.719397	1123569.977980	1123570.626303	8.173092e-01	4	none	NaN	NaN
104	9	6	15	bathroom	sun_abjtwfukuwddzted.tif	1123571.396056	1123571.654647	1123572.303035	6.922109e-01	5	39	1123574.015838	1
104	9	7	21	bathroom	sun_aggnnqpdorgxpvce.tif	1123574.791081	1123575.049674	1123575.697891	7.505901e-01	11	none	NaN	NaN
104	9	8	38	bathroom	sun_anhioqovhscjqqwb.tif	1123576.459406	1123576.717991	1123577.366237	6.505114e-01	28	none	NaN	NaN
104	9	9	44	bathroom	sun_apkruvsevgegsdwp.tif	1123578.136065	1123578.394654	1123579.042875	6.588513e-01	34	none	NaN	NaN
104	9	10	56	bathroom	sun_awnqiikzaispgmwo.tif	1123579.804384	1123580.062969	1123580.711356	6.588513e-01	46	none	NaN	NaN
104	9	11	16	bathroom	sun_acduarbnmmoglmiv.tif	1123581.481049	1123581.739639	1123582.387962	8.256491e-01	6	none	NaN	NaN
104	9	12	45	bathroom	sun_apkxzenqapsujocq.tif	1123583.157704	1123583.416297	1123584.064656	8.006294e-01	35	none	NaN	NaN
104	9	13	18	bathroom	sun_acgyywnybuveqsro.tif	1123584.834367	1123585.092954	1123585.741243	8.423289e-01	8	none	NaN	NaN
104	9	14	20	bathroom	sun_afcoljnjfoxjtgja.tif	1123586.511031	1123586.769619	1123587.417889	7.756098e-01	10	37	1123588.095995	1
104	9	15	49	bathroom	sun_asfwthctfqerjvxr.tif	1123588.871703	1123589.130290	1123589.778566	8.089693e-01	39	none	NaN	NaN
104	9	16	31	bathroom	sun_akiytfaagpdsphgz.tif	1123590.540022	1123590.798609	1123591.446934	7.589300e-01	21	none	NaN	NaN
104	9	17	17	bathroom	sun_acegryoqftbzowsg.tif	1123592.216684	1123592.475271	1123593.123667	7.422502e-01	7	none	NaN	NaN
104	9	18	54	bathroom	sun_auzqhkafidnkrwmo.tif	1123593.893335	1123594.151934	1123594.800243	8.506688e-01	44	none	NaN	NaN
104	9	19	50	bathroom	sun_aspsyogrekjtfozg.tif	1123595.570003	1123595.828598	1123596.476801	8.173092e-01	40	none	NaN	NaN
104	9	20	34	bathroom	sun_alkosphxlxwjwgjd.tif	1123597.238325	1123597.496914	1123598.145298	7.339103e-01	24	37	1123598.879891	1
104	9	21	53	bathroom	sun_ausgutylgojavyoq.tif	1123599.657384	1123599.915973	1123600.564290	6.838710e-01	43	none	NaN	NaN
104	9	22	13	bathroom	sun_aavhrsfjbserjtht.tif	1123601.334049	1123601.592630	1123602.240929	6.671912e-01	3	none	NaN	NaN
104	9	23	52	bathroom	sun_aunuadmjocsddsrl.tif	1123603.002368	1123603.260952	1123603.909189	6.505114e-01	42	none	NaN	NaN
104	9	24	12	bathroom	sun_aapitsgbtktqubfy.tif	1123604.670689	1123604.929278	1123605.577605	7.589300e-01	2	none	NaN	NaN
104	9	25	39	bathroom	sun_anryaplzeujmzfkd.tif	1123606.347346	1123606.605941	1123607.254185	7.339103e-01	29	none	NaN	NaN
104	9	26	29	bathroom	sun_ahqjwnzgolcaoidx.tif	1123608.015670	1123608.274257	1123608.922470	7.088906e-01	19	none	NaN	NaN
104	9	27	26	bathroom	sun_ahaulkltgpkeeemi.tif	1123609.683990	1123609.942591	1123610.590902	6.671912e-01	16	37	1123611.216090	1
104	9	28	51	bathroom	sun_atstyziqcmkahyxk.tif	1123611.986270	1123612.244861	1123612.893088	7.088906e-01	41	none	NaN	NaN
